x,y,z,vx,vy,vz,ax,ay,az,mass
-0.91093897819519043,-0.029180115088820457,-0.91093891859054565,-0.11465708166360855,-1.5887080430984497,-0.11465665698051453,-0.43590408563613892,-10.265167236328125,-0.43590185046195984,8
-0.70822310447692871,-0.041917935013771057,-0.92333304882049561,-0.078770250082015991,-1.6577361822128296,-0.18007314205169678,-0.23537880182266235,-10.02078914642334,-0.18420828878879547,8
-0.50128710269927979,-0.047306939959526062,-0.92787724733352661,-0.016553925350308418,-1.6961921453475952,-0.21025457978248596,-0.095787376165390015,-9.9965028762817383,-0.14831764996051788,8
-0.29945594072341919,-0.047240287065505981,-0.92702990770339966,0.0050194659270346165,-1.6962828636169434,-0.20387563109397888,-0.00064181623747572303,-10.008913040161133,-0.16886113584041595,8
-0.099765434861183167,-0.046635806560516357,-0.92615634202957153,0.0030925942119210958,-1.6897516250610352,-0.19528774917125702,0.01587640680372715,-9.9914140701293945,-0.1573750227689743,8
0.099765434861183167,-0.046635806560516357,-0.92615634202957153,-0.003092718543484807,-1.6897516250610352,-0.19528791308403015,-0.015877580270171165,-9.9914140701293945,-0.15737591683864594,8
0.2994559109210968,-0.047240279614925385,-0.92703014612197876,-0.0050200223922729492,-1.6962827444076538,-0.20387686789035797,0.00064005603780969977,-10.008913040161133,-0.1688624769449234,8
0.50128704309463501,-0.047306954860687256,-0.92787820100784302,0.016552934423089027,-1.6961921453475952,-0.21025827527046204,0.095786653459072113,-9.9964990615844727,-0.14829932153224945,8
0.70822310447692871,-0.041918128728866577,-0.92333322763442993,0.07877010852098465,-1.6577373743057251,-0.18007546663284302,0.23537969589233398,-10.02078914642334,-0.18421052396297455,8
0.91093897819519043,-0.029180197045207024,-0.91093891859054565,0.11465787142515182,-1.5887091159820557,-0.11465810239315033,0.43590721487998962,-10.265174865722656,-0.43590855598449707,8
-0.92333310842514038,-0.041917867958545685,-0.70822298526763916,-0.18007312715053558,-1.6577355861663818,-0.078769303858280182,-0.18420873582363129,-10.020792961120605,-0.23537656664848328,8
-0.71605122089385986,-0.077402323484420776,-0.71605110168457031,-0.1079426035284996,-1.7897825241088867,-0.10794182866811752,-0.010804160498082638,-9.1075439453125,-0.010803713463246822,8
-0.49830403923988342,-0.086114361882209778,-0.71284341812133789,0.00095847621560096741,-1.8403835296630859,-0.093279220163822174,-0.1289098858833313,-9.0213947296142578,-0.098996974527835846,8
-0.29647496342658997,-0.079713307321071625,-0.70501178503036499,0.025744123384356499,-1.8165231943130493,-0.053413033485412598,-0.01318864431232214,-9.2252960205078125,-0.24050629138946533,8
-0.099116623401641846,-0.076768055558204651,-0.70198673009872437,0.010330501943826675,-1.7964644432067871,-0.029855985194444656,0.040747612714767456,-9.2562780380249023,-0.22966894507408142,8
0.099116623401641846,-0.076768055558204651,-0.70198678970336914,-0.010330571793019772,-1.7964644432067871,-0.029856162145733833,-0.040748313069343567,-9.2562780380249023,-0.229670450091362,8
0.29647493362426758,-0.079713307321071625,-0.70501184463500977,-0.025744518265128136,-1.8165231943130493,-0.053413607180118561,0.013186409138143063,-9.2252960205078125,-0.24050897359848022,8
0.49830397963523865,-0.08611452579498291,-0.71284359693527222,-0.00095923710614442825,-1.8403846025466919,-0.09328024834394455,0.12890787422657013,-9.0213947296142578,-0.098996974527835846,8
0.71605122089385986,-0.077402941882610321,-0.71605134010314941,0.10794253647327423,-1.7897850275039673,-0.10794296115636826,0.010803713463246822,-9.1075334548950195,-0.010804831050336361,8
0.92333322763442993,-0.041918128728866577,-0.70822310447692871,0.18007409572601318,-1.6577372550964355,-0.078770138323307037,0.18420962989330292,-10.020786285400391,-0.23538036644458771,8
-0.92787718772888184,-0.047306664288043976,-0.50128704309463501,-0.21025353670120239,-1.6961902379989624,-0.01655268669128418,-0.14831720292568207,-9.9965028762817383,-0.095785476267337799,8
-0.71284341812133789,-0.086113914847373962,-0.49830394983291626,-0.093279354274272919,-1.840381383895874,0.00095950462855398655,-0.098996751010417938,-9.0214023590087891,-0.12890894711017609,8
-0.48759233951568604,-0.076583743095397949,-0.48759222030639648,0.050210274755954742,-1.8215724229812622,0.05021107941865921,-0.36075744032859802,-9.3879995346069336,-0.36075642704963684,8
-0.28989225625991821,-0.055220793932676315,-0.48525428771972656,0.066254906356334686,-1.7596642971038818,0.051465202122926712,-0.1403798907995224,-10.008719444274902,-0.38319948315620422,8
-0.097053974866867065,-0.045149166136980057,-0.48214066028594971,0.029688755050301552,-1.7109780311584473,0.066486440598964691,-0.13184693455696106,-10.958243370056152,-1.1049797534942627,8
0.097053959965705872,-0.045149162411689758,-0.48214066028594971,-0.029688820242881775,-1.7109777927398682,0.066486291587352753,0.13184443116188049,-10.958239555358887,-1.1049808263778687,8
0.28989225625991821,-0.055220849812030792,-0.48525449633598328,-0.066255122423171997,-1.7596639394760132,0.051462270319461823,0.14037743210792542,-10.008705139160156,-0.38324674963951111,8
0.48759216070175171,-0.076583944261074066,-0.48759210109710693,-0.050212085247039795,-1.8215736150741577,0.050212666392326355,0.36077666282653809,-9.387995719909668,-0.36077463626861572,8
0.71284341812133789,-0.086114481091499329,-0.49830394983291626,0.093279279768466949,-1.8403842449188232,0.00095965212676674128,0.098996303975582123,-9.0213947296142578,-0.1289074718952179,8
0.92787730693817139,-0.047306954860687256,-0.50128704309463501,0.2102539986371994,-1.6961922645568848,-0.016552699729800224,0.14831854403018951,-9.9965028762817383,-0.09578598290681839,8
-0.92702978849411011,-0.047240026295185089,-0.2994559109210968,-0.20387439429759979,-1.6962809562683105,0.0050200773403048515,-0.16885934770107269,-10.008915901184082,-0.00063953915378078818,8
-0.70501178503036499,-0.079712666571140289,-0.29647493362426758,-0.053412999957799911,-1.8165202140808105,0.025744587182998657,-0.24050696194171906,-9.2253074645996094,-0.01318663265556097,8
-0.48525434732437134,-0.055220611393451691,-0.28989225625991821,0.051464438438415527,-1.7596628665924072,0.066255256533622742,-0.38320046663284302,-10.008712768554688,-0.14037631452083588,8
-0.29168599843978882,-0.044283431023359299,-0.29168593883514404,0.060422502458095551,-1.7942765951156616,0.060425508767366409,-0.40142408013343811,-10.990790367126465,-0.40134686231613159,8
-0.093826912343502045,-0.030612701550126076,-0.29266723990440369,0.051003389060497284,-1.7408069372177124,0.070559211075305939,-0.82519763708114624,-14.034804344177246,-0.054478567093610764,8
0.093826763331890106,-0.03061271458864212,-0.29266723990440369,-0.05100439116358757,-1.7408055067062378,0.070559166371822357,0.8252098560333252,-14.034765243530273,-0.054480355232954025,8
0.29168590903282166,-0.044283591210842133,-0.2916857898235321,-0.060424499213695526,-1.7942764759063721,0.060425110161304474,0.40136954188346863,-10.99077320098877,-0.40136617422103882,8
0.48525452613830566,-0.055220793932676315,-0.28989216685295105,-0.051461778581142426,-1.7596638202667236,0.066255956888198853,0.38324898481369019,-10.008715629577637,-0.14037296175956726,8
0.70501178503036499,-0.079712994396686554,-0.29647484421730042,0.053413063287734985,-1.8165220022201538,0.025744909420609474,0.24050864577293396,-9.2253036499023438,-0.013185123912990093,8
0.92702978849411011,-0.047240234911441803,-0.2994559109210968,0.20387448370456696,-1.6962823867797852,0.0050201942212879658,0.16886068880558014,-10.008913040161133,-0.00063899433007463813,8
-0.92615634202957153,-0.046635549515485764,-0.099765397608280182,-0.19528709352016449,-1.6897498369216919,0.0030926885083317757,-0.1573718935251236,-9.9914140701293945,0.015877285972237587,8
-0.70198678970336914,-0.076767511665821075,-0.099116586148738861,-0.029855987057089806,-1.7964617013931274,0.01033055130392313,-0.22966742515563965,-9.2562885284423828,0.040748395025730133,8
-0.48214071989059448,-0.045148942619562149,-0.097053937613964081,0.066488146781921387,-1.7109756469726562,0.029688786715269089,-1.1049044132232666,-10.95821475982666,-0.13184532523155212,8
-0.29266726970672607,-0.030612608417868614,-0.093826837837696075,0.070558354258537292,-1.7408020496368408,0.051004920154809952,-0.054483484476804733,-14.034665107727051,-0.8251575231552124,8
-0.09670865535736084,-0.022839546203613281,-0.096708565950393677,0.067086994647979736,-1.6408088207244873,0.067089959979057312,0.85183680057525635,-13.449081420898438,0.85191690921783447,8
0.096708610653877258,-0.022839542478322983,-0.096708588302135468,-0.067089393734931946,-1.6408095359802246,0.067088283598423004,-0.85189884901046753,-13.44911003112793,0.85186415910720825,8
0.29266726970672607,-0.030612723901867867,-0.093826718628406525,-0.070558786392211914,-1.7408061027526855,0.051004543900489807,0.054480131715536118,-14.034783363342285,-0.82520794868469238,8
0.48214074969291687,-0.045149102807044983,-0.097053885459899902,-0.06648591160774231,-1.71097731590271,0.029689125716686249,1.1049795150756836,-10.958243370056152,-0.13184130191802979,8
0.70198673009872437,-0.076767712831497192,-0.099116571247577667,0.029855966567993164,-1.7964628934860229,0.010330665856599808,0.22966888546943665,-9.2562808990478516,0.040749065577983856,8
0.92615628242492676,-0.046635739505290985,-0.099765397608280182,0.19528703391551971,-1.6897509098052979,0.0030927208717912436,0.1573718935251236,-9.9914102554321289,0.015877587720751762,8
-0.92615634202957153,-0.046635538339614868,0.099765457212924957,-0.19528709352016449,-1.6897497177124023,-0.0030927429907023907,-0.1573718935251236,-9.9914140701293945,-0.015877803787589073,8
-0.70198678970336914,-0.076767414808273315,0.099116630852222443,-0.029856014996767044,-1.7964613437652588,-0.010330636985599995,-0.22966742515563965,-9.2562885284423828,-0.040748730301856995,8
-0.48214071989059448,-0.045148942619562149,0.097053989768028259,0.066488109529018402,-1.7109760046005249,-0.029688678681850433,-1.1049051284790039,-10.958231925964355,0.13183492422103882,8
-0.29266726970672607,-0.030612628906965256,0.093826860189437866,0.070558331906795502,-1.7408027648925781,-0.05100584402680397,-0.05448281392455101,-14.034726142883301,0.82510858774185181,8
-0.096708685159683228,-0.022839557379484177,0.096708685159683228,0.067086838185787201,-1.6408087015151978,-0.067088261246681213,0.8518674373626709,-13.449081420898438,-0.85190677642822266,8
0.096708633005619049,-0.022839531302452087,0.096708670258522034,-0.067088879644870758,-1.6408090591430664,-0.067087985575199127,-0.85190129280090332,-13.449099540710449,-0.85187935829162598,8
0.29266726970672607,-0.030612660571932793,0.093826852738857269,-0.070558816194534302,-1.74080491065979,-0.051003385335206985,0.054480355232954025,-14.034769058227539,0.82522523403167725,8
0.48214074969291687,-0.045149113982915878,0.097053997218608856,-0.06648603081703186,-1.7109771966934204,-0.029688561335206032,1.1049784421920776,-10.958235740661621,0.13184168934822083,8
0.70198673009872437,-0.076767683029174805,0.099116623401641846,0.029855938628315926,-1.7964627742767334,-0.010330763645470142,0.22966854274272919,-9.2562847137451172,-0.040748480707406998,8
0.92615634202957153,-0.046635724604129791,0.099765434861183167,0.1952870637178421,-1.6897507905960083,-0.0030928365886211395,0.1573718935251236,-9.9914102554321289,-0.015878040343523026,8
-0.92702978849411011,-0.047240026295185089,0.29945597052574158,-0.20387439429759979,-1.6962809562683105,-0.0050201904959976673,-0.16885934770107269,-10.008913040161133,0.00063871493330225348,8
-0.70501178503036499,-0.079712741076946259,0.29647496342658997,-0.053412992507219315,-1.8165204524993896,-0.025744834914803505,-0.24050763249397278,-9.2253074645996094,0.013184956274926662,8
-0.48525437712669373,-0.055220622569322586,0.28989225625991821,0.05146254226565361,-1.7596632242202759,-0.066255681216716766,-0.38326206803321838,-10.008737564086914,0.14037385582923889,8
-0.29168596863746643,-0.044283498078584671,0.29168599843978882,0.060422565788030624,-1.7942768335342407,-0.060425519943237305,-0.40142396092414856,-10.990861892700195,0.40134942531585693,8
-0.093826867640018463,-0.030612694099545479,0.29266732931137085,0.051004368811845779,-1.7408057451248169,-0.07055886834859848,-0.82514816522598267,-14.03480052947998,0.054480802267789841,8
0.093826822936534882,-0.030612640082836151,0.29266732931137085,-0.051003623753786087,-1.7408038377761841,-0.070558905601501465,0.82522457838058472,-14.034740447998047,0.054480355232954025,8
0.29168593883514404,-0.044283468276262283,0.29168596863746643,-0.060425184667110443,-1.7942748069763184,-0.060425274074077606,0.40135321021080017,-10.99077320098877,0.40135365724563599,8
0.48525452613830566,-0.055220752954483032,0.28989225625991821,-0.051461875438690186,-1.7596631050109863,-0.066255539655685425,0.38324987888336182,-10.008712768554688,0.14037743210792542,8
0.70501178503036499,-0.079712964594364166,0.29647490382194519,0.053413018584251404,-1.8165216445922852,-0.025744939222931862,0.24050819873809814,-9.2252998352050781,0.013186297379434109,8
0.92702978849411011,-0.047240227460861206,0.29945597052574158,0.20387448370456696,-1.6962822675704956,-0.0050202584825456142,0.16886068880558014,-10.008913040161133,0.00063931563636288047,8
-0.92787718772888184,-0.04730667918920517,0.50128698348999023,-0.21025341749191284,-1.696190357208252,0.01655234582722187,-0.14831630885601044,-9.9965028762817383,0.09578491747379303,8
-0.71284341812133789,-0.086113870143890381,0.49830383062362671,-0.093279145658016205,-1.840381383895874,-0.00096024386584758759,-0.098994962871074677,-9.0214061737060547,0.12890742719173431,8
-0.4875921905040741,-0.076583728194236755,0.48759207129478455,0.050211984664201736,-1.8215721845626831,-0.050212949514389038,-0.36077621579170227,-9.387995719909668,0.36077418923377991,8
-0.28989225625991821,-0.055220764130353928,0.48525434732437134,0.066255129873752594,-1.7596638202667236,-0.051463443785905838,-0.14037832617759705,-10.008737564086914,0.38326117396354675,8
-0.097053997218608856,-0.045149091631174088,0.48214069008827209,0.029688429087400436,-1.7109771966934204,-0.066486403346061707,-0.13183805346488953,-10.958246231079102,1.1049766540527344,8
0.09705391526222229,-0.045149106532335281,0.48214074969291687,-0.029689047485589981,-1.7109768390655518,-0.066486269235610962,0.1318446546792984,-10.958229064941406,1.1049759387969971,8
0.28989219665527344,-0.055220786482095718,0.48525452613830566,-0.066255576908588409,-1.759663462638855,-0.051462080329656601,0.1403769850730896,-10.008708953857422,0.38324999809265137,8
0.48759213089942932,-0.076583907008171082,0.48759213089942932,-0.0502123162150383,-1.8215733766555786,-0.050212260335683823,0.36077642440795898,-9.387995719909668,0.36077699065208435,8
0.71284341812133789,-0.086114361882209778,0.49830394983291626,0.093279220163822174,-1.8403835296630859,-0.00095941044855862856,0.098996080458164215,-9.0213947296142578,0.12890760600566864,8
0.92787730693817139,-0.047306910157203674,0.50128704309463501,0.21025396883487701,-1.6961919069290161,0.016552813351154327,0.14831854403018951,-9.9964990615844727,0.095786124467849731,8
-0.92333310842514038,-0.041917875409126282,0.70822292566299438,-0.18007297813892365,-1.6577355861663818,0.078768640756607056,-0.18420784175395966,-10.02078914642334,0.23537634313106537,8
-0.71605116128921509,-0.077402427792549133,0.71605050563812256,-0.10794224590063095,-1.7897828817367554,0.10793927311897278,-0.010802372358739376,-9.1075439453125,0.010820700787007809,8
-0.49830400943756104,-0.086114279925823212,0.71284341812133789,0.00095925747882574797,-1.8403829336166382,0.093277901411056519,-0.12890706956386566,-9.0213947296142578,0.098994068801403046,8
-0.29647493362426758,-0.079713046550750732,0.70501166582107544,0.025744564831256866,-1.8165217638015747,0.053412023931741714,-0.01318646501749754,-9.2252960205078125,0.24050562083721161,8
-0.099116623401641846,-0.076767861843109131,0.70198678970336914,0.01033049076795578,-1.7964631319046021,0.029855582863092422,0.040747642517089844,-9.2562780380249023,0.2296668142080307,8
0.099116578698158264,-0.076767787337303162,0.70198678970336914,-0.010330913588404655,-1.7964630126953125,0.029855825006961823,-0.040749289095401764,-9.2562780380249023,0.22966809570789337,8
0.29647481441497803,-0.079713180661201477,0.70501184463500977,-0.02574501559138298,-1.816522479057312,0.053413111716508865,0.013185570947825909,-9.2252960205078125,0.24050864577293396,8
0.49830394983291626,-0.086114473640918732,0.71284365653991699,-0.00095949065871536732,-1.8403841257095337,0.093280114233493805,0.12890693545341492,-9.0213947296142578,0.098996527493000031,8
0.71605122089385986,-0.077402710914611816,0.71605139970779419,0.10794246941804886,-1.7897841930389404,0.10794307291507721,0.010803266428411007,-9.1075372695922852,0.010804607532918453,8
0.92333322763442993,-0.041917987167835236,0.70822316408157349,0.18007394671440125,-1.6577367782592773,0.078770145773887634,0.18420828878879547,-10.020792961120605,0.23537991940975189,8
-0.91093897819519043,-0.029180090874433517,0.91093891859054565,-0.11465686559677124,-1.5887078046798706,0.11465649306774139,-0.43590185046195984,-10.265167236328125,0.43589985370635986,8
-0.70822304487228394,-0.041917920112609863,0.9233328104019165,-0.07876964658498764,-1.6577358245849609,0.18007247149944305,-0.23537679016590118,-10.020786285400391,0.18420560657978058,8
-0.50128704309463501,-0.047306887805461884,0.92787712812423706,-0.016552826389670372,-1.6961915493011475,0.210253044962883,-0.095785729587078094,-9.9964990615844727,0.14831452071666718,8
-0.2994559109210968,-0.0472402423620224,0.92702966928482056,0.0050200582481920719,-1.6962823867797852,0.20387384295463562,-0.00063974870136007667,-10.008913040161133,0.1688566654920578,8
-0.099765434861183167,-0.046635746955871582,0.92615622282028198,0.0030926775652915239,-1.6897509098052979,0.19528673589229584,0.015877112746238708,-9.9914102554321289,0.15737010538578033,8
0.099765412509441376,-0.046635746955871582,0.92615634202957153,-0.0030928959604352713,-1.6897509098052979,0.19528734683990479,-0.015878299251198769,-9.9914102554321289,0.15737278759479523,8
0.2994559109210968,-0.047240257263183594,0.92703008651733398,-0.0050202878192067146,-1.6962825059890747,0.2038763016462326,0.00063912005862221122,-10.008913040161133,0.16886024177074432,8
0.50128704309463501,-0.047306917607784271,0.92787820100784302,0.016552789136767387,-1.6961917877197266,0.21025800704956055,0.095785729587078094,-9.9964990615844727,0.148297980427742,8
0.70822310447692871,-0.041918002068996429,0.92333322763442993,0.078769989311695099,-1.6577368974685669,0.18007537722587585,0.23537857830524445,-10.020792961120605,0.18420962989330292,8
0.91093897819519043,-0.029180143028497696,0.91093891859054565,0.11465766280889511,-1.588708758354187,0.1146579310297966,0.43590542674064636,-10.265174865722656,0.43590766191482544,8
-0.92420578002929688,0.17298182845115662,-0.92420566082000732,-0.1913609653711319,-1.5594667196273804,-0.1913602203130722,-0.24357719719409943,-10.092604637145996,-0.24357406795024872,8
-0.71858000755310059,0.16275402903556824,-0.96109813451766968,-0.12910176813602448,-1.6055999994277954,-0.33202061057090759,-0.041794624179601669,-9.8496713638305664,0.68574512004852295,8
-0.50235092639923096,0.15868468582630157,-0.9746435284614563,-0.026054836809635162,-1.6326445341110229,-0.40622353553771973,-0.11000895500183105,-9.8312463760375977,0.84049695730209351,8
-0.29929837584495544,0.15858423709869385,-0.97380560636520386,0.0040079648606479168,-1.6343852281570435,-0.40660190582275391,-0.03619544580578804,-9.8413572311401367,0.72929883003234863,8
-0.099720336496829987,0.15888483822345734,-0.97277134656906128,0.0028881027828902006,-1.631035327911377,-0.40004709362983704,0.0053069875575602055,-9.8303813934326172,0.69089764356613159,8
0.09972032904624939,0.15888483822345734,-0.97277134656906128,-0.0028882152400910854,-1.631035327911377,-0.40004724264144897,-0.005308251827955246,-9.8303813934326172,0.69089674949645996,8
0.29929834604263306,0.15858426690101624,-0.97380560636520386,-0.0040088817477226257,-1.6343851089477539,-0.40660259127616882,0.036194786429405212,-9.8413572311401367,0.72929614782333374,8
0.5023500919342041,0.15868468582630157,-0.97464358806610107,0.026051919907331467,-1.6326444149017334,-0.40622565150260925,0.11002856492996216,-9.8312463760375977,0.84049606323242188,8
0.71857988834381104,0.16275393962860107,-0.96109914779663086,0.12910126149654388,-1.605600118637085,-0.3320252001285553,0.0417955182492733,-9.8496713638305664,0.68576210737228394,8
0.92420589923858643,0.17298178374767303,-0.92420583963394165,0.191362664103508,-1.5594671964645386,-0.19136281311511993,0.24357451498508453,-10.092604637145996,-0.24357585608959198,8
-0.96109819412231445,0.16275413334369659,-0.71857970952987671,-0.33202078938484192,-1.6055994033813477,-0.12910012900829315,0.68574512004852295,-9.8496713638305664,-0.041794624179601669,8
-0.74571025371551514,0.13114205002784729,-0.74570947885513306,-0.21642683446407318,-1.7157343626022339,-0.2164236307144165,0.68032437562942505,-9.051081657409668,0.6803056001663208,8
-0.49291771650314331,0.1254977285861969,-0.73307245969772339,0.011705382727086544,-1.7659895420074463,-0.17924800515174866,-0.30878168344497681,-9.1599216461181641,0.28060466051101685,8
-0.29199796915054321,0.12831085920333862,-0.70962321758270264,0.043720871210098267,-1.7551670074462891,-0.081400685012340546,-0.13899475336074829,-9.2661943435668945,-0.22509633004665375,8
-0.098561406135559082,0.12919864058494568,-0.70246106386184692,0.015707552433013916,-1.7464852333068848,-0.037525322288274765,0.04600197821855545,-9.2539997100830078,-0.2850208580493927,8
0.098561406135559082,0.12919864058494568,-0.70246106386184692,-0.015707492828369141,-1.7464852333068848,-0.037525393068790436,-0.046002201735973358,-9.2539997100830078,-0.28502094745635986,8
0.29199796915054321,0.1283109188079834,-0.70962327718734741,-0.043721377849578857,-1.7551666498184204,-0.08140110969543457,0.13899475336074829,-9.2661981582641602,-0.22509923577308655,8
0.49291712045669556,0.12549807131290436,-0.73307257890701294,-0.011707794852554798,-1.7659887075424194,-0.17924921214580536,0.30879160761833191,-9.1599330902099609,0.2806033194065094,8
0.74571025371551514,0.13114164769649506,-0.74571025371551514,0.21642659604549408,-1.7157357931137085,-0.21642677485942841,-0.68032348155975342,-9.0510749816894531,0.68032169342041016,8
0.96109908819198608,0.16275393962860107,-0.71857988834381104,0.33202403783798218,-1.605600118637085,-0.1291012316942215,-0.6857638955116272,-9.8496713638305664,-0.041795965284109116,8
-0.97464269399642944,0.15868516266345978,-0.5023500919342041,-0.40622022747993469,-1.6326427459716797,-0.026051606982946396,0.84047996997833252,-9.8312578201293945,-0.1100275069475174,8
-0.73307251930236816,0.12549856305122375,-0.49291709065437317,-0.17924845218658447,-1.7659862041473389,0.011708351783454418,0.28060555458068848,-9.1599359512329102,-0.30879324674606323,8
-0.46004286408424377,0.14800652861595154,-0.46004199981689453,0.11202540248632431,-1.6894054412841797,0.11202853918075562,-0.835693359375,-9.8077430725097656,-0.83571058511734009,8
-0.27533829212188721,0.15921126306056976,-0.46023261547088623,0.11047619581222534,-1.6439970731735229,0.027756204828619957,-1.2444487810134888,-10.273314476013184,-1.0245901346206665,8
-0.090908899903297424,0.16163323819637299,-0.44726771116256714,0.059027828276157379,-1.6260442733764648,0.059057258069515228,-1.5456557273864746,-10.540372848510742,-5.0307340621948242,8
0.09090886265039444,0.16163326799869537,-0.44726759195327759,-0.059026464819908142,-1.6260429620742798,0.059061072766780853,1.5456981658935547,-10.540336608886719,-5.0306801795959473,8
0.27533867955207825,0.15921127796173096,-0.46023255586624146,-0.1104731485247612,-1.6439971923828125,0.027756661176681519,1.244483470916748,-10.273353576660156,-1.0245928764343262,8
0.46004235744476318,0.1480066180229187,-0.46004179120063782,-0.11202742159366608,-1.6894035339355469,0.11203107237815857,0.83569449186325073,-9.8077182769775391,-0.83571815490722656,8
0.73307251930236816,0.12549810111522675,-0.49291670322418213,0.17924825847148895,-1.7659884691238403,0.011709319427609444,-0.28060376644134521,-9.1599330902099609,-0.30880013108253479,8
0.97464275360107422,0.15868468582630157,-0.5023500919342041,0.4062211811542511,-1.6326446533203125,-0.026051623746752739,-0.84047907590866089,-9.8312463760375977,-0.11002856492996216,8
-0.9738045334815979,0.15858432650566101,-0.29929834604263306,-0.40659746527671814,-1.6343843936920166,0.0040089087560772896,0.72928363084793091,-9.8413572311401367,-0.036193754523992538,8
-0.70962321758270264,0.12831099331378937,-0.29199796915054321,-0.08140069991350174,-1.7551654577255249,0.04372139647603035,-0.22509834170341492,-9.2661943435668945,-0.13899296522140503,8
-0.46023315191268921,0.15921129286289215,-0.2753387987613678,0.027753684669733047,-1.6439969539642334,0.110475093126297,-1.0245805978775024,-10.273317337036133,-1.2443951368331909,8
-0.27484568953514099,0.16686138510704041,-0.27484536170959473,0.12735559046268463,-1.7758890390396118,0.12736470997333527,-3.1218090057373047,-9.7391071319580078,-3.1216082572937012,8
-0.083126656711101532,0.167218416929245,-0.28416174650192261,0.069668538868427277,-1.7752951383590698,0.17604927718639374,-4.4519929885864258,-9.7212905883789062,1.1287941932678223,8
0.083126626908779144,0.16721844673156738,-0.28416180610656738,-0.069665946066379547,-1.7752951383590698,0.17604455351829529,4.4520554542541504,-9.7212905883789062,1.1286520957946777,8
0.27484557032585144,0.16686148941516876,-0.27484551072120667,-0.12735794484615326,-1.7758893966674805,0.12735922634601593,3.1217334270477295,-9.7391185760498047,-3.1217308044433594,8
0.46023276448249817,0.15921127796173096,-0.27533808350563049,-0.027755212038755417,-1.6439971923828125,0.11047793179750443,1.0245949029922485,-10.273353576660156,-1.2444436550140381,8
0.70962321758270264,0.12831093370914459,-0.29199784994125366,0.081400595605373383,-1.7551662921905518,0.043722137808799744,0.22510012984275818,-9.2661943435668945,-0.13899284601211548,8
0.9738045334815979,0.15858423709869385,-0.29929828643798828,0.40659776329994202,-1.6343852281570435,0.0040091145783662796,-0.72928184270858765,-9.8413572311401367,-0.036193948239088058,8
-0.97277134656906128,0.15888489782810211,-0.099720299243927002,-0.40004557371139526,-1.6310346126556396,0.0028881346806883812,0.69090300798416138,-9.8303775787353516,0.0053080422803759575,8
-0.70246118307113647,0.12919872999191284,-0.098561368882656097,-0.037525486201047897,-1.7464840412139893,0.015707341954112053,-0.28501728177070618,-9.2539920806884766,0.046002898365259171,8
-0.44726812839508057,0.16163325309753418,-0.090908899903297424,0.059064250439405441,-1.6260441541671753,0.059028226882219315,-5.0304393768310547,-10.540372848510742,-1.5456387996673584,8
-0.28416192531585693,0.16721838712692261,-0.08312651515007019,0.17604312300682068,-1.7752951383590698,0.069674290716648102,1.128653883934021,-9.7212905883789062,-4.4518399238586426,8
-0.091679371893405914,0.16640302538871765,-0.091679245233535767,0.1595759242773056,-1.8085824251174927,0.15958249568939209,2.0077776908874512,-10.719908714294434,2.0079617500305176,8
0.091679252684116364,0.16640302538871765,-0.091679222881793976,-0.1595800518989563,-1.8085824251174927,0.1595795601606369,-2.0078885555267334,-10.719908714294434,2.0078709125518799,8
0.28416183590888977,0.16721844673156738,-0.083126567304134369,-0.1760459840297699,-1.7752951383590698,0.069666855037212372,-1.12872314453125,-9.7212905883789062,-4.4520349502563477,8
0.44726794958114624,0.16163325309753418,-0.090908780694007874,-0.059059564024209976,-1.6260441541671753,0.059027578681707382,5.0306649208068848,-10.540372848510742,-1.54567551612854,8
0.70246118307113647,0.12919870018959045,-0.098561368882656097,0.037525370717048645,-1.746484637260437,0.015707621350884438,0.2850193977355957,-9.2539920806884766,0.046003792434930801,8
0.97277134656906128,0.15888488292694092,-0.099720291793346405,0.40004575252532959,-1.6310350894927979,0.0028881803154945374,-0.69090121984481812,-9.8303813934326172,0.0053081540390849113,8
-0.97277134656906128,0.15888489782810211,0.09972035139799118,-0.40004560351371765,-1.6310347318649292,-0.0028882436454296112,0.69090300798416138,-9.8303775787353516,-0.0053085661493241787,8
-0.70246118307113647,0.12919904291629791,0.098561428487300873,-0.037525460124015808,-1.746483325958252,-0.015707653015851974,-0.28501644730567932,-9.2540035247802734,-0.046004518866539001,8
-0.44726830720901489,0.16163325309753418,0.090908937156200409,0.059065219014883041,-1.6260441541671753,-0.059029232710599899,-5.0304574966430664,-10.540369033813477,1.5455528497695923,8
-0.28416192531585693,0.16721838712692261,0.083126552402973175,0.17604543268680573,-1.7752951383590698,-0.069675430655479431,1.1287236213684082,-9.7212905883789062,4.4517035484313965,8
-0.091679379343986511,0.16640302538871765,0.091679342091083527,0.15957607328891754,-1.8085824251174927,-0.15958040952682495,2.0078186988830566,-10.719908714294434,-2.0079441070556641,8
0.091679275035858154,0.16640302538871765,0.09167933464050293,-0.15957970917224884,-1.8085824251174927,-0.15957765281200409,-2.0078897476196289,-10.719908714294434,-2.00783371925354,8
0.28416183590888977,0.16721844673156738,0.083126671612262726,-0.17604617774486542,-1.7752951383590698,-0.06966545432806015,-1.1287249326705933,-9.7212905883789062,4.4520378112792969,8
0.44726768136024475,0.16163325309753418,0.090908899903297424,-0.059064287692308426,-1.6260441541671753,-0.059025969356298447,5.0306477546691895,-10.540372848510742,1.5456905364990234,8
0.7024611234664917,0.12919899821281433,0.09856133908033371,0.037525195628404617,-1.7464838027954102,-0.015707960352301598,0.28501850366592407,-9.2540035247802734,-0.046002060174942017,8
0.97277134656906128,0.15888488292694092,0.09972032904624939,0.40004569292068481,-1.6310349702835083,-0.0028884247876703739,-0.69090121984481812,-9.8303813934326172,-0.0053085591644048691,8
-0.9738045334815979,0.15858432650566101,0.29929837584495544,-0.40659752488136292,-1.6343845129013062,-0.004009004682302475,0.72928184270858765,-9.8413572311401367,0.036193501204252243,8
-0.70962321758270264,0.12831099331378937,0.29199802875518799,-0.081400580704212189,-1.7551654577255249,-0.043721742928028107,-0.22509878873825073,-9.2661943435668945,0.13899184763431549,8
-0.46023291349411011,0.15921129286289215,0.27533820271492004,0.027754431590437889,-1.6439969539642334,-0.11047952622175217,-1.0247504711151123,-10.273349761962891,1.2443726062774658,8
-0.27484577894210815,0.16686142981052399,0.2748456597328186,0.12735638022422791,-1.77588951587677,-0.127359539270401,-3.1217062473297119,-9.7391214370727539,3.1216332912445068,8
-0.083126604557037354,0.16721838712692261,0.28416195511817932,0.069669999182224274,-1.7752951383590698,-0.17604683339595795,-4.4518632888793945,-9.7212905883789062,-1.1287441253662109,8
0.08312661200761795,0.167218416929245,0.28416186571121216,-0.069667048752307892,-1.7752951383590698,-0.17604632675647736,4.4520115852355957,-9.7212905883789062,-1.1287249326705933,8
0.27484568953514099,0.16686144471168518,0.27484560012817383,-0.12735752761363983,-1.7758916616439819,-0.12735855579376221,3.1217164993286133,-9.7391862869262695,3.1217334270477295,8
0.46023273468017578,0.15921130776405334,0.27533829212188721,-0.027756296098232269,-1.6439969539642334,-0.110478475689888,1.0245741605758667,-10.273353576660156,1.2443621158599854,8
0.70962321758270264,0.12831094861030579,0.29199758172035217,0.081400454044342041,-1.7551659345626831,-0.043722663074731827,0.22510012984275818,-9.2661943435668945,0.13900391757488251,8
0.9738045334815979,0.15858426690101624,0.29929831624031067,0.40659776329994202,-1.6343851089477539,-0.0040092477574944496,-0.72928184270858765,-9.8413572311401367,0.036194618791341782,8
-0.97464263439178467,0.15868516266345978,0.5023500919342041,-0.40622007846832275,-1.6326426267623901,0.026051539927721024,0.84047996997833252,-9.8312540054321289,0.11002688854932785,8
-0.73307251930236816,0.12549827992916107,0.49291709065437317,-0.17924800515174866,-1.7659870386123657,-0.01170842070132494,0.28060600161552429,-9.1599292755126953,0.30879196524620056,8
-0.46004283428192139,0.1480066180229187,0.4600423276424408,0.11202634125947952,-1.6894042491912842,-0.11202843487262726,-0.83569115400314331,-9.8077116012573242,0.83569848537445068,8
-0.27533829212188721,0.15921130776405334,0.46023240685462952,0.1104765385389328,-1.6439968347549438,-0.027756413444876671,-1.2444469928741455,-10.273349761962891,1.0247620344161987,8
-0.090908907353878021,0.16163326799869537,0.44726788997650146,0.059028062969446182,-1.6260436773300171,-0.059062249958515167,-1.5455961227416992,-10.540369033813477,5.0306072235107422,8
0.090908847749233246,0.16163326799869537,0.44726762175559998,-0.059026781469583511,-1.6260436773300171,-0.059066914021968842,1.5456745624542236,-10.540372848510742,5.0305747985839844,8
0.27533823251724243,0.15921130776405334,0.46023273468017578,-0.11047851294279099,-1.6439969539642334,-0.02775663323700428,1.2443609237670898,-10.273357391357422,1.0245740413665771,8
0.4600423276424408,0.14800655841827393,0.4600423276424408,-0.11202798038721085,-1.6894043684005737,-0.11202805489301682,0.83569473028182983,-9.8077144622802734,0.83569473028182983,8
0.73307251930236816,0.12549810111522675,0.49291709065437317,0.17924822866916656,-1.7659883499145508,-0.011708062142133713,-0.28060376644134521,-9.1599330902099609,0.3087916374206543,8
0.97464275360107422,0.15868468582630157,0.5023500919342041,0.40622106194496155,-1.6326444149017334,0.026051793247461319,-0.84047996997833252,-9.8312463760375977,0.11002800613641739,8
-0.96109819412231445,0.16275414824485779,0.71857976913452148,-0.33202031254768372,-1.6055989265441895,0.12909993529319763,0.68574512004852295,-9.8496713638305664,0.041793283075094223,8
-0.74571019411087036,0.13114212453365326,0.74570935964584351,-0.21642586588859558,-1.7157338857650757,0.21642304956912994,0.68032348155975342,-9.0510854721069336,-0.68030917644500732,8
-0.49291718006134033,0.12549817562103271,0.73307210206985474,0.011707698926329613,-1.7659878730773926,0.17924615740776062,-0.30878952145576477,-9.1599330902099609,-0.28060689568519592,8
-0.29199796915054321,0.12831097841262817,0.70962256193161011,0.043721761554479599,-1.7551655769348145,0.081397607922554016,-0.13899363577365875,-9.2661943435668945,0.22511644661426544,8
-0.098561406135559082,0.12919910252094269,0.7024611234664917,0.015707606449723244,-1.7464830875396729,0.037524614483118057,0.046002339571714401,-9.2540063858032227,0.28501710295677185,8
0.098561227321624756,0.12919910252094269,0.7024611234664917,-0.015708316117525101,-1.7464830875396729,0.037524763494729996,-0.04599999263882637,-9.2540063858032227,0.2850169837474823,8
0.29199749231338501,0.12831094861030579,0.70962262153625488,-0.043723031878471375,-1.7551659345626831,0.081398576498031616,0.13900257647037506,-9.2661981582641602,0.22511689364910126,8
0.49291709065437317,0.12549810111522675,0.73307263851165771,-0.011708172038197517,-1.7659884691238403,0.17924895882606506,0.30879047513008118,-9.1599330902099609,-0.2806033194065094,8
0.74571025371551514,0.13114172220230103,0.74571031332015991,0.21642637252807617,-1.7157354354858398,0.2164267897605896,-0.68032437562942505,-9.0510749816894531,-0.68032395839691162,8
0.96109896898269653,0.16275402903556824,0.71857988834381104,0.33202353119850159,-1.6055998802185059,0.12910103797912598,-0.6857638955116272,-9.8496713638305664,0.041795965284109116,8
-0.9242057204246521,0.17298188805580139,0.92420566082000732,-0.19136041402816772,-1.5594662427902222,0.1913604736328125,-0.24357317388057709,-10.09260082244873,0.24357049167156219,8
-0.71857970952987671,0.16275413334369659,0.96109873056411743,-0.12910044193267822,-1.605599045753479,0.33202177286148071,-0.041793283075094223,-9.8496685028076172,-0.68576568365097046,8
-0.5023500919342041,0.15868477523326874,0.97464257478713989,-0.026051811873912811,-1.6326440572738647,0.40621992945671082,-0.11002717167139053,-9.8312463760375977,-0.84048086404800415,8
-0.29929831624031067,0.15858429670333862,0.97380447387695312,0.0040090628899633884,-1.6343848705291748,0.40659698843955994,-0.036194298416376114,-9.8413572311401367,-0.72928184270858765,8
-0.099720321595668793,0.1588849276304245,0.9727712869644165,0.0028882729820907116,-1.6310346126556396,0.40004494786262512,0.0053077628836035728,-9.8303813934326172,-0.69090390205383301,8
0.099720299243927002,0.1588849276304245,0.9727712869644165,-0.0028885309584438801,-1.6310346126556396,0.4000454843044281,-0.0053082448430359364,-9.8303813934326172,-0.69090121984481812,8
0.29929825663566589,0.15858429670333862,0.97380548715591431,-0.0040093157440423965,-1.6343848705291748,0.40660101175308228,0.036194648593664169,-9.8413572311401367,-0.72929704189300537,8
0.5023500919342041,0.15868471562862396,0.9746435284614563,0.026051735505461693,-1.6326441764831543,0.40622499585151672,0.11002744734287262,-9.8312463760375977,-0.84049785137176514,8
0.71857976913452148,0.16275396943092346,0.96109914779663086,0.12910084426403046,-1.6055999994277954,0.33202472329139709,0.041794177144765854,-9.8496713638305664,-0.68576300144195557,8
0.92420578002929688,0.17298178374767303,0.9242057204246521,0.19136181473731995,-1.559467077255249,0.19136196374893188,0.24357496201992035,-10.092604637145996,0.2435763031244278,8
-0.9309963583946228,0.37935090065002441,-0.93099617958068848,-0.24640683829784393,-1.504361629486084,-0.24640600383281708,-0.28980907797813416,-9.9899873733520508,-0.28980550169944763,8
-0.72340130805969238,0.37791740894317627,-0.9778175950050354,-0.16533185541629791,-1.5145527124404907,-0.43501493334770203,-0.069309622049331665,-9.9673347473144531,0.80639177560806274,8
-0.50300616025924683,0.37731152772903442,-0.99494564533233643,-0.03377164900302887,-1.5211771726608276,-0.53693556785583496,-0.14182190597057343,-9.9915142059326172,0.9157901406288147,8
-0.29939833283424377,0.37715157866477966,-0.99456113576889038,0.0020935619249939919,-1.5232900381088257,-0.54445004463195801,-0.052202247083187103,-10.002078056335449,0.75268858671188354,8
-0.099783994257450104,0.37706384062767029,-0.99382352828979492,0.0022689306642860174,-1.5239919424057007,-0.54113614559173584,0.0026699432637542486,-10.001932144165039,0.70430511236190796,8
0.099784016609191895,0.37706387042999268,-0.99382352828979492,-0.0022687907330691814,-1.5239918231964111,-0.54113620519638062,-0.0026713891420513391,-10.001932144165039,0.7043033242225647,8
0.299398273229599,0.37715160846710205,-0.99456113576889038,-0.0020941209513694048,-1.5232897996902466,-0.54445028305053711,0.052200395613908768,-10.002078056335449,0.75268858671188354,8
0.50300604104995728,0.37731152772903442,-0.99494576454162598,0.033770252019166946,-1.5211766958236694,-0.53693681955337524,0.14182375371456146,-9.9915142059326172,0.91578835248947144,8
0.72340130805969238,0.37791743874549866,-0.97781866788864136,0.16533160209655762,-1.5145523548126221,-0.43501943349838257,0.069309622049331665,-9.9673347473144531,0.80640876293182373,8
0.93099707365036011,0.37935090065002441,-0.93099701404571533,0.24640989303588867,-1.5043613910675049,-0.24640986323356628,0.28978404402732849,-9.9899835586547852,-0.28978404402732849,8
-0.97781777381896973,0.37791743874549866,-0.72340124845504761,-0.43501508235931396,-1.5145524740219116,-0.16533041000366211,0.80639266967773438,-9.9673347473144531,-0.069308727979660034,8
-0.75491470098495483,0.37615072727203369,-0.75491386651992798,-0.28675803542137146,-1.5284180641174316,-0.2867540717124939,0.60487204790115356,-9.9293727874755859,0.60485327243804932,8
-0.49033409357070923,0.37866726517677307,-0.72797983884811401,0.025415662676095963,-1.5279603004455566,-0.18929584324359894,-0.34018969535827637,-10.087712287902832,-0.035695284605026245,8
-0.29360893368721008,0.37591552734375,-0.70604437589645386,0.048635378479957581,-1.5365259647369385,-0.06663503497838974,-0.025248637422919273,-10.032819747924805,-0.30491775274276733,8
-0.098825797438621521,0.37439319491386414,-0.70136958360671997,0.014716416597366333,-1.5439836978912354,-0.0238998644053936,0.067677803337574005,-9.9932804107666016,-0.21546541154384613,8
0.098825842142105103,0.37439325451850891,-0.70136958360671997,-0.014716103672981262,-1.5439833402633667,-0.023899909108877182,-0.06768045574426651,-9.9932804107666016,-0.215465247631073,8
0.2936091423034668,0.37591597437858582,-0.70604437589645386,-0.04863574355840683,-1.5365244150161743,-0.066635221242904663,0.025236455723643303,-10.032827377319336,-0.30491751432418823,8
0.49033322930335999,0.3786676824092865,-0.72797989845275879,-0.025419596582651138,-1.5279585123062134,-0.18929614126682281,0.34020733833312988,-10.087719917297363,-0.03569483757019043,8
0.75491410493850708,0.37615108489990234,-0.7549140453338623,0.28675633668899536,-1.5284167528152466,-0.28675621747970581,-0.60484969615936279,-9.9293832778930664,0.60484969615936279,8
0.97781866788864136,0.37791743874549866,-0.72340130805969238,0.43501895666122437,-1.5145523548126221,-0.16533151268959045,-0.80641055107116699,-9.9673347473144531,-0.069308727979660034,8
-0.99494528770446777,0.37731152772903442,-0.50300604104995728,-0.53693264722824097,-1.5211766958236694,-0.033770035952329636,0.91579729318618774,-9.9915142059326172,-0.14182157814502716,8
-0.72798001766204834,0.37866726517677307,-0.49033313989639282,-0.1892969161272049,-1.5279600620269775,0.025419991463422775,-0.035696178674697876,-10.087716102600098,-0.34020823240280151,8
-0.44182702898979187,0.39305838942527771,-0.44182601571083069,0.24916729331016541,-1.4659152030944824,0.24917116761207581,-1.0610630512237549,-10.797299385070801,-1.0610952377319336,8
-0.27932500839233398,0.38928541541099548,-0.42488577961921692,0.16571202874183655,-1.4394947290420532,0.31318393349647522,-0.069847851991653442,-10.863010406494141,-1.4468495845794678,8
-0.095157265663146973,0.38110262155532837,-0.41516205668449402,0.050062976777553558,-1.4461208581924438,0.38741710782051086,-0.27200603485107422,-8.9311151504516602,-2.3317058086395264,8
0.09515727311372757,0.38110259175300598,-0.41516229510307312,-0.050063367933034897,-1.4461233615875244,0.38741376996040344,0.27200481295585632,-8.9311904907226562,-2.3317513465881348,8
0.27932479977607727,0.38928535580635071,-0.42488572001457214,-0.16571405529975891,-1.4394963979721069,0.31318527460098267,0.069870650768280029,-10.863010406494141,-1.4467905759811401,8
0.44182673096656799,0.39305850863456726,-0.44182625412940979,-0.24916857481002808,-1.4659130573272705,0.24917089939117432,1.0610684156417847,-10.797242164611816,-1.0610783100128174,8
0.72797983884811401,0.37866759300231934,-0.49033302068710327,0.18929585814476013,-1.5279587507247925,0.025420324876904488,0.035693943500518799,-10.087719917297363,-0.34020686149597168,8
0.99494558572769165,0.37731152772903442,-0.50300604104995728,0.53693503141403198,-1.521176815032959,-0.033770129084587097,-0.9157901406288147,-9.9915142059326172,-0.141823410987854,8
-0.99455994367599487,0.37715160846710205,-0.29939833283424377,-0.54444462060928345,-1.5232899188995361,0.0020939188543707132,0.75267785787582397,-10.002078056335449,-0.052198488265275955,8
-0.70604443550109863,0.37591552734375,-0.29360944032669067,-0.066635921597480774,-1.536526083946228,0.048634853214025497,-0.30492803454399109,-10.03282356262207,-0.025225615128874779,8
-0.42488640546798706,0.38928541541099548,-0.27932488918304443,0.31318008899688721,-1.4394952058792114,0.16571328043937683,-1.4468352794647217,-10.863024711608887,-0.069848299026489258,8
0.4248863160610199,0.38928529620170593,-0.27932476997375488,-0.31318235397338867,-1.4394943714141846,0.16571302711963654,1.4467825889587402,-10.862942695617676,-0.069939494132995605,8
0.70604443550109863,0.37591552734375,-0.2936091423034668,0.066635333001613617,-1.5365258455276489,0.048635963350534439,0.30492120981216431,-10.032819747924805,-0.025235114619135857,8
0.9945601224899292,0.37715157866477966,-0.299398273229599,0.54444622993469238,-1.5232900381088257,0.0020941374823451042,-0.75267070531845093,-10.002078056335449,-0.052199628204107285,8
-0.99382323026657104,0.3770638108253479,-0.099784038960933685,-0.5411340594291687,-1.5239923000335693,0.0022685709409415722,0.70431405305862427,-10.001924514770508,0.0026720177847892046,8
-0.70136958360671997,0.37439289689064026,-0.098825946450233459,-0.023900434374809265,-1.5439848899841309,0.014715513214468956,-0.21547256410121918,-9.9932699203491211,0.067685037851333618,8
-0.41516262292861938,0.38110244274139404,-0.09515729546546936,0.38741573691368103,-1.446123480796814,0.050063580274581909,-2.3316280841827393,-8.9311904907226562,-0.27197876572608948,8
0.41516286134719849,0.38110253214836121,-0.095157213509082794,-0.38741090893745422,-1.4461233615875244,0.050064168870449066,2.3317477703094482,-8.9311838150024414,-0.27198448777198792,8
0.70136964321136475,0.37439292669296265,-0.098825924098491669,0.023900313302874565,-1.5439847707748413,0.014715743251144886,0.2154695987701416,-9.9932699203491211,0.06768355518579483,8
0.99382328987121582,0.37706384062767029,-0.099784001708030701,0.54113483428955078,-1.5239920616149902,0.0022686312440782785,-0.70430868864059448,-10.001928329467773,0.0026711726095527411,8
-0.99382323026657104,0.37706351280212402,0.099784031510353088,-0.5411342978477478,-1.5239932537078857,-0.0022688631433993578,0.70431405305862427,-10.001920700073242,-0.0026717872824519873,8
-0.70136958360671997,0.37439286708831787,0.098825931549072266,-0.023900389671325684,-1.5439850091934204,-0.01471604872494936,-0.21547156572341919,-9.9932661056518555,-0.067684203386306763,8
-0.41516277194023132,0.3811022937297821,0.095157258212566376,0.3874146044254303,-1.4461231231689453,-0.050064936280250549,-2.3316164016723633,-8.9311943054199219,0.27196413278579712,8
0.41516262292861938,0.38110271096229553,0.09515727311372757,-0.3874148428440094,-1.4461215734481812,-0.050063252449035645,2.3316986560821533,-8.9311981201171875,0.2720058262348175,8
0.70136964321136475,0.37439292669296265,0.098825789988040924,0.023900087922811508,-1.5439846515655518,-0.014716750010848045,0.2154666930437088,-9.9932699203491211,-0.067679531872272491,8
0.99382328987121582,0.37706384062767029,0.099784016609191895,0.54113483428955078,-1.5239920616149902,-0.0022691616322845221,-0.70430868864059448,-10.001928329467773,-0.0026715428102761507,8
-0.99456006288528442,0.37715157866477966,0.29939839243888855,-0.54444539546966553,-1.5232901573181152,-0.0020939982496201992,0.75267606973648071,-10.002078056335449,0.052199207246303558,8
-0.70604437589645386,0.37591552734375,0.29360926151275635,-0.066635407507419586,-1.5365258455276489,-0.048635341227054596,-0.30492690205574036,-10.032819747924805,0.025235338136553764,8
-0.42488613724708557,0.38928535580635071,0.27932485938072205,0.3131788969039917,-1.4394950866699219,-0.16571441292762756,-1.4469175338745117,-10.86286735534668,0.069874227046966553,8
0.42488595843315125,0.38928553462028503,0.27932482957839966,-0.31318292021751404,-1.4394927024841309,-0.16571256518363953,1.446851372718811,-10.862953186035156,0.069940388202667236,8
0.70604443550109863,0.37591552734375,0.29360875487327576,0.066635049879550934,-1.5365257263183594,-0.048636473715305328,0.30492076277732849,-10.032819747924805,0.025246402248740196,8
0.9945601224899292,0.37715160846710205,0.29939830303192139,0.54444628953933716,-1.5232899188995361,-0.0020943088456988335,-0.75267070531845093,-10.002078056335449,0.05220017209649086,8
-0.99494528770446777,0.3773115873336792,0.50300604104995728,-0.53693282604217529,-1.5211760997772217,0.033770196139812469,0.91579550504684448,-9.9915142059326172,0.14182129502296448,8
-0.72797977924346924,0.3786676824092865,0.49033349752426147,-0.18929570913314819,-1.5279586315155029,-0.025418557226657867,-0.035695284605026245,-10.087722778320312,0.34020152688026428,8
-0.44182717800140381,0.39305844902992249,0.44182670116424561,0.24916456639766693,-1.4659154415130615,-0.24916626513004303,-1.0611162185668945,-10.797307014465332,1.0611279010772705,8
-0.27932479977607727,0.38928541541099548,0.42488598823547363,0.16571395099163055,-1.4394944906234741,-0.31317993998527527,-0.069876909255981445,-10.862871170043945,1.4469202756881714,8
-0.095157131552696228,0.38110277056694031,0.41516274213790894,0.050064399838447571,-1.4461213350296021,-0.38741269707679749,-0.27198895812034607,-8.931208610534668,2.3316869735717773,8
0.095157139003276825,0.38110277056694031,0.41516262292861938,-0.050064325332641602,-1.4461213350296021,-0.38741400837898254,0.27198615670204163,-8.9312152862548828,2.3316969871520996,8
0.27932471036911011,0.38928547501564026,0.42488592863082886,-0.1657128781080246,-1.4394972324371338,-0.31318250298500061,0.069944411516189575,-10.863096237182617,1.4468460083007812,8
0.4418264627456665,0.39305847883224487,0.4418264627456665,-0.24917013943195343,-1.4659148454666138,-0.24916994571685791,1.0610840320587158,-10.797303199768066,1.0610755681991577,8
0.72797983884811401,0.37866762280464172,0.49033349752426147,0.18929588794708252,-1.5279585123062134,-0.025418542325496674,0.03569483757019043,-10.087719917297363,0.34019929170608521,8
0.99494558572769165,0.37731152772903442,0.50300604104995728,0.53693497180938721,-1.5211766958236694,0.033770341426134109,-0.9157901406288147,-9.9915142059326172,0.14182251691818237,8
-0.97781765460968018,0.37791791558265686,0.72340130805969238,-0.43501424789428711,-1.5145509243011475,0.16533030569553375,0.80639356374740601,-9.9673452377319336,0.069308280944824219,8
-0.75491398572921753,0.37615126371383667,0.7549138069152832,-0.28675496578216553,-1.5284160375595093,0.28675365447998047,0.60485327243804932,-9.9293832778930664,-0.60485416650772095,8
-0.49033349752426147,0.37866771221160889,0.72797906398773193,0.025418709963560104,-1.5279581546783447,0.18929214775562286,-0.34019717574119568,-10.087719917297363,0.035709589719772339,8
-0.29360869526863098,0.37591597437858582,0.70604425668716431,0.048636723309755325,-1.5365239381790161,0.066634178161621094,-0.025246402248740196,-10.032827377319336,0.3049253523349762,8
-0.098825596272945404,0.37439373135566711,0.70136964321136475,0.014716950245201588,-1.5439811944961548,0.023900026455521584,0.067674055695533752,-9.9932842254638672,0.21547284722328186,8
0.098825573921203613,0.37439373135566711,0.70136964321136475,-0.014717394486069679,-1.5439811944961548,0.023900076746940613,-0.067676827311515808,-9.9932880401611328,0.2154754102230072,8
0.29360863566398621,0.3759160041809082,0.70604431629180908,-0.04863753542304039,-1.5365240573883057,0.066635027527809143,0.025244725868105888,-10.032834053039551,0.30492624640464783,8
0.49033340811729431,0.37866771221160889,0.72798001766204834,-0.025419283658266068,-1.5279581546783447,0.18929634988307953,0.34019684791564941,-10.087719917297363,0.035696178674697876,8
0.7549140453338623,0.37615108489990234,0.75491410493850708,0.28675577044487,-1.528416633605957,0.2867560088634491,-0.60485327243804932,-9.9293794631958008,-0.60485327243804932,8
0.97781842947006226,0.37791743874549866,0.72340136766433716,0.43501794338226318,-1.5145523548126221,0.16533100605010986,-0.80641055107116699,-9.9673347473144531,0.069309622049331665,8
-0.93099623918533325,0.37935101985931396,0.93099617958068848,-0.24640603363513947,-1.504360556602478,0.24640600383281708,-0.289804607629776,-9.9899835586547852,0.28980416059494019,8
-0.72340130805969238,0.37791791558265686,0.9778175950050354,-0.16533072292804718,-1.514551043510437,0.43501466512680054,-0.069308280944824219,-9.9673452377319336,-0.80639356374740601,8
-0.50300604104995728,0.37731155753135681,0.994945228099823,-0.033770203590393066,-1.5211763381958008,0.53693324327468872,-0.14182145893573761,-9.9915142059326172,-0.91579371690750122,8
-0.29939821362495422,0.37715160846710205,0.99455994367599487,0.0020945577416568995,-1.5232894420623779,0.54444485902786255,-0.05220026895403862,-10.002078056335449,-0.75267606973648071,8
-0.099783904850482941,0.37706390023231506,0.99382311105728149,0.0022692813072353601,-1.5239913463592529,0.54113233089447021,0.0026680014561861753,-10.001932144165039,-0.70431584119796753,8
0.099783889949321747,0.37706390023231506,0.99382239580154419,-0.0022694622166454792,-1.5239914655685425,0.54113060235977173,-0.0026690980885177851,-10.001932144165039,-0.70429259538650513,8
0.29939821362495422,0.37715160846710205,0.99456006288528442,-0.0020947898738086224,-1.5232895612716675,0.54444563388824463,0.052199628204107285,-10.002078056335449,-0.75267428159713745,8
0.50300604104995728,0.37731152772903442,0.99494564533233643,0.033770035952329636,-1.5211765766143799,0.53693556785583496,0.14182129502296448,-9.9915142059326172,-0.91579371690750122,8
0.72340130805969238,0.37791743874549866,0.97781854867935181,0.16533090174198151,-1.5145523548126221,0.43501842021942139,0.06930917501449585,-9.9673347473144531,-0.80641055107116699,8
0.9309963583946228,0.37935090065002441,0.93099629878997803,0.24640746414661407,-1.5043613910675049,0.24640744924545288,0.28980684280395508,-9.9899835586547852,0.28980773687362671,8
-0.93247336149215698,0.58140558004379272,-0.93247330188751221,-0.26459091901779175,-1.481065034866333,-0.26459035277366638,-0.37731078267097473,-9.9016704559326172,-0.37730810046195984,8
-0.72434616088867188,0.58119058609008789,-0.98020964860916138,-0.17722372710704803,-1.4837551116943359,-0.46182563900947571,-0.13018369674682617,-9.9121494293212891,0.6996040940284729,8
-0.50322192907333374,0.58094018697738647,-0.99753814935684204,-0.037169825285673141,-1.4876796007156372,-0.56854671239852905,-0.16740089654922485,-9.9408168792724609,0.75260275602340698,8
-0.29949438571929932,0.58080750703811646,-0.9974483847618103,0.00088220107136294246,-1.4896268844604492,-0.58037561178207397,-0.060534242540597916,-9.9534482955932617,0.55718779563903809,8
-0.099805690348148346,0.58081644773483276,-0.99687111377716064,0.0020387088879942894,-1.4898463487625122,-0.57872271537780762,0.0013844248605892062,-9.9579401016235352,0.50179660320281982,8
0.099805824458599091,0.58081644773483276,-0.9968712329864502,-0.0020382478833198547,-1.4898463487625122,-0.57872277498245239,-0.0013885669177398086,-9.9579401016235352,0.50179839134216309,8
0.29949432611465454,0.58080750703811646,-0.9974483847618103,-0.00088250858243554831,-1.4896268844604492,-0.58037561178207397,0.060532703995704651,-9.9534482955932617,0.55718779563903809,8
0.50322180986404419,0.58094018697738647,-0.99753814935684204,0.037168879061937332,-1.4876796007156372,-0.56854707002639771,0.16740089654922485,-9.9408168792724609,0.75260275602340698,8
0.7243461012840271,0.58119058609008789,-0.98020976781845093,0.1772235780954361,-1.4837549924850464,-0.46182712912559509,0.13018369674682617,-9.9121494293212891,0.69960230588912964,8
0.93247342109680176,0.58140558004379272,-0.93247336149215698,0.26459202170372009,-1.4810649156570435,-0.26459178328514099,0.37731078267097473,-9.901667594909668,-0.3773098886013031,8
-0.98020970821380615,0.58119058609008789,-0.72434604167938232,-0.46182540059089661,-1.4837551116943359,-0.17722263932228088,0.69960498809814453,-9.9121494293212891,-0.13018056750297546,8
-0.75500798225402832,0.58074641227722168,-0.75500780344009399,-0.29776608943939209,-1.4894517660140991,-0.29776382446289062,0.49564358592033386,-9.9375696182250977,0.49564269185066223,8
-0.49021956324577332,0.57976120710372925,-0.72382098436355591,0.024194478988647461,-1.5069836378097534,-0.17995883524417877,-0.39752370119094849,-10.106877326965332,-0.27396261692047119,8
-0.29464176297187805,0.57887160778045654,-0.70504474639892578,0.045731894671916962,-1.5264416933059692,-0.079269513487815857,-0.00099062919616699219,-10.426407814025879,-0.87166815996170044,8
-0.098959483206272125,0.57897853851318359,-0.70160049200057983,0.016121342778205872,-1.5227841138839722,-0.034049037843942642,0.16003848612308502,-10.2774658203125,-0.44014108180999756,8
0.098959691822528839,0.57897853851318359,-0.70160049200057983,-0.016120802611112595,-1.5227841138839722,-0.034049179404973984,-0.1600496917963028,-10.2774658203125,-0.44013985991477966,8
0.29464170336723328,0.57887154817581177,-0.70504474639892578,-0.045732904225587845,-1.5264418125152588,-0.079269476234912872,0.00098805874586105347,-10.426407814025879,-0.87166523933410645,8
0.4902186393737793,0.57976120710372925,-0.72382092475891113,-0.024198403581976891,-1.5069839954376221,-0.1799585223197937,0.39754208922386169,-10.106884956359863,-0.27395769953727722,8
0.75500786304473877,0.58074641227722168,-0.75500780344009399,0.29776525497436523,-1.48945152759552,-0.29776459932327271,-0.49563911557197571,-9.9375696182250977,0.49563911557197571,8
0.9802098274230957,0.58119058609008789,-0.7243461012840271,0.46182730793952942,-1.4837549924850464,-0.17722326517105103,-0.69960230588912964,-9.9121494293212891,-0.13018369674682617,8
-0.99753713607788086,0.58094024658203125,-0.50322180986404419,-0.56854188442230225,-1.4876794815063477,-0.037168711423873901,0.75259023904800415,-9.9408168792724609,-0.16739922761917114,8
-0.72382169961929321,0.57976120710372925,-0.49021860957145691,-0.17996209859848022,-1.506983757019043,0.024198375642299652,-0.27394786477088928,-10.106884956359863,-0.3975473940372467,8
-0.44027367234230042,0.57517844438552856,-0.44027286767959595,0.23412400484085083,-1.632488489151001,0.23412169516086578,-2.2967047691345215,-12.777728080749512,-2.2969217300415039,8
-0.2818152904510498,0.57303833961486816,-0.41728222370147705,0.19296370446681976,-1.6830413341522217,0.37159281969070435,0.91624301671981812,-13.906004905700684,-2.0980031490325928,8
-0.096920616924762726,0.57507103681564331,-0.4074627161026001,0.069157324731349945,-1.6060999631881714,0.48342761397361755,1.263668417930603,-11.477468490600586,-1.5300687551498413,8
0.096920683979988098,0.57507091760635376,-0.40746310353279114,-0.069160640239715576,-1.6061054468154907,0.48342618346214294,-1.2637763023376465,-11.477611541748047,-1.5300562381744385,8
0.28181520104408264,0.57303804159164429,-0.41728228330612183,-0.19296465814113617,-1.6830518245697021,0.37159264087677002,-0.91625416278839111,-13.906269073486328,-2.0979888439178467,8
0.44027328491210938,0.57517838478088379,-0.44027277827262878,-0.23412159085273743,-1.6324945688247681,0.23412376642227173,2.2968478202819824,-12.777874946594238,-2.2968559265136719,8
0.72382104396820068,0.57976120710372925,-0.49021857976913452,0.17995887994766235,-1.506983757019043,0.024198846891522408,0.27395635843276978,-10.106884956359863,-0.39754363894462585,8
0.99753820896148682,0.58094024658203125,-0.50322180986404419,0.56854689121246338,-1.4876793622970581,-0.037168771028518677,-0.75260275602340698,-9.9408168792724609,-0.16740022599697113,8
-0.99744725227355957,0.58080750703811646,-0.2994944155216217,-0.58036983013153076,-1.4896270036697388,0.00088222301565110683,0.55717527866363525,-9.9534521102905273,-0.060530338436365128,8
-0.70504492521286011,0.57887142896652222,-0.29464203119277954,-0.079274825751781464,-1.5264455080032349,0.045731943100690842,-0.87180459499359131,-10.426532745361328,-0.00097677111625671387,8
-0.41728287935256958,0.57303792238235474,-0.28181520104408264,0.37158864736557007,-1.6830571889877319,0.19296151399612427,-2.0979862213134766,-13.90648078918457,0.91613125801086426,8
0.41728284955024719,0.57303792238235474,-0.28181514143943787,-0.37158724665641785,-1.6830544471740723,0.19296395778656006,2.0980567932128906,-13.906369209289551,0.91620457172393799,8
0.70504486560821533,0.57887160778045654,-0.29464197158813477,0.07927018404006958,-1.5264419317245483,0.045732177793979645,0.8716699481010437,-10.426410675048828,-0.00097766518592834473,8
0.9974483847618103,0.58080756664276123,-0.29949438571929932,0.5803753137588501,-1.4896267652511597,0.00088224030332639813,-0.55718779563903809,-9.9534482955932617,-0.060531824827194214,8
-0.99687093496322632,0.58081644773483276,-0.099805906414985657,-0.57872068881988525,-1.4898465871810913,0.002037836005911231,0.50180375576019287,-9.9579401016235352,0.0013927089748904109,8
-0.70160073041915894,0.57897853851318359,-0.098959937691688538,-0.034054182469844818,-1.5227839946746826,0.016121085733175278,-0.44028094410896301,-10.277469635009766,0.16009333729743958,8
-0.40746352076530457,0.57507115602493286,-0.096920624375343323,0.48342117667198181,-1.6061023473739624,0.069163762032985687,-1.5301259756088257,-11.477622032165527,1.2638818025588989,8
0.40746352076530457,0.57507109642028809,-0.096920624375343323,-0.48342245817184448,-1.6061002016067505,0.069161184132099152,1.5301268100738525,-11.477472305297852,1.2638005018234253,8
0.70160079002380371,0.57897853851318359,-0.09895981103181839,0.034053977578878403,-1.5227842330932617,0.016120018437504768,0.44026848673820496,-10.277462959289551,0.16005460917949677,8
0.99687129259109497,0.58081644773483276,-0.099805846810340881,0.5787234902381897,-1.4898461103439331,0.002037806436419487,-0.50179660320281982,-9.9579362869262695,0.0013890069676563144,8
-0.99687111377716064,0.58081644773483276,0.099805839359760284,-0.57872164249420166,-1.4898467063903809,-0.0020383137743920088,0.50180375576019287,-9.9579401016235352,-0.0013888672692701221,8
-0.70160073041915894,0.57897853851318359,0.098959788680076599,-0.034054011106491089,-1.5227842330932617,-0.016120541840791702,-0.44027581810951233,-10.2774658203125,-0.16005052626132965,8
-0.40746352076530457,0.57507091760635376,0.096920616924762726,0.48342123627662659,-1.6061043739318848,-0.069160506129264832,-1.5301313400268555,-11.477582931518555,-1.2637693881988525,8
0.40746301412582397,0.57507115602493286,0.096920602023601532,-0.48342433571815491,-1.6060999631881714,-0.069157637655735016,1.5301402807235718,-11.477468490600586,-1.2636667490005493,8
0.70160073041915894,0.57897853851318359,0.09895952045917511,0.034049537032842636,-1.5227839946746826,-0.016120973974466324,0.4401431679725647,-10.277462959289551,-0.16002507507801056,8
0.99687135219573975,0.58081644773483276,0.09980570524930954,0.57872378826141357,-1.4898461103439331,-0.0020388842094689608,-0.50179660320281982,-9.9579362869262695,-0.0013858218444511294,8
-0.9974481463432312,0.58080744743347168,0.29949447512626648,-0.58037328720092773,-1.4896271228790283,-0.0008821178344078362,0.55719316005706787,-9.9534482955932617,0.060531456023454666,8
-0.70504492521286011,0.57887154817581177,0.29464209079742432,-0.079274021089076996,-1.5264421701431274,-0.045731604099273682,-0.87179988622665405,-10.426407814025879,0.00097598874708637595,8
-0.41728290915489197,0.57303786277770996,0.28181523084640503,0.37158694863319397,-1.6830452680587769,-0.19296462833881378,-2.0980613231658936,-13.906068801879883,-0.91624611616134644,8
0.41728246212005615,0.57303816080093384,0.28181520104408264,-0.37159004807472229,-1.6830453872680664,-0.19296479225158691,2.0980658531188965,-13.906111717224121,-0.91624879837036133,8
0.70504486560821533,0.57887160778045654,0.29464209079742432,0.079269535839557648,-1.526441216468811,-0.045731734484434128,0.87166488170623779,-10.426403999328613,0.00097710639238357544,8
0.99744844436645508,0.58080756664276123,0.29949444532394409,0.5803760290145874,-1.4896267652511597,-0.00088231003610417247,-0.55718600749969482,-9.9534482955932617,0.060531929135322571,8
-0.99753713607788086,0.58094024658203125,0.50322186946868896,-0.56854206323623657,-1.4876794815063477,0.037169080227613449,0.75259023904800415,-9.9408168792724609,0.16739945113658905,8
-0.72382092475891113,0.57976120710372925,0.49021896719932556,-0.17995861172676086,-1.5069842338562012,-0.02419682964682579,-0.27396395802497864,-10.106881141662598,0.39753821492195129,8
-0.4402737021446228,0.57517820596694946,0.44027334451675415,0.23412056267261505,-1.6324939727783203,-0.23412184417247772,-2.2968339920043945,-12.777846336364746,2.2968437671661377,8
-0.28181517124176025,0.57303780317306519,0.4172828197479248,0.19296663999557495,-1.6830533742904663,-0.37158751487731934,0.91631722450256348,-13.906330108642578,2.0980632305145264,8
-0.096920475363731384,0.57507091760635376,0.40746390819549561,0.069161690771579742,-1.6061036586761475,-0.48341962695121765,1.2637996673583984,-11.477582931518555,1.5301277637481689,8
0.096920393407344818,0.57507091760635376,0.40746390819549561,-0.069164149463176727,-1.606103777885437,-0.48341959714889526,-1.2638586759567261,-11.477590560913086,1.5301285982131958,8
0.28181511163711548,0.57303786277770996,0.41728276014328003,-0.19296170771121979,-1.6830571889877319,-0.3715897798538208,-0.91612499952316284,-13.906476974487305,2.0979897975921631,8
0.4402732253074646,0.57517832517623901,0.4402732253074646,-0.23412099480628967,-1.6324931383132935,-0.23412653803825378,2.2969086170196533,-12.777868270874023,2.2967021465301514,8
0.72382098436355591,0.57976120710372925,0.49021905660629272,0.17995873093605042,-1.5069831609725952,-0.024196399375796318,0.27395904064178467,-10.106877326965332,0.39753404259681702,8
0.99753820896148682,0.58094024658203125,0.50322192907333374,0.56854712963104248,-1.4876792430877686,0.037169311195611954,-0.75260275602340698,-9.9408130645751953,0.16739989817142487,8
-0.9802093505859375,0.58119064569473267,0.7243461012840271,-0.46182402968406677,-1.4837547540664673,0.17722241580486298,0.69960498809814453,-9.9121494293212891,0.13018235564231873,8
-0.75500780344009399,0.58074641227722168,0.75500720739364624,-0.29776453971862793,-1.48945152759552,0.29776164889335632,0.49564269185066223,-9.9375696182250977,-0.49562659859657288,8
-0.49021896719932556,0.57976120710372925,0.72382080554962158,0.024197176098823547,-1.5069839954376221,0.17995771765708923,-0.39753365516662598,-10.106881141662598,0.27396082878112793,8
-0.29464125633239746,0.57887154817581177,0.70504486560821533,0.045733880251646042,-1.5264413356781006,0.079273484647274017,-0.0009968876838684082,-10.426407814025879,0.87179768085479736,8
-0.098959378898143768,0.57897865772247314,0.70160079002380371,0.016121689230203629,-1.5227830410003662,0.034054197371006012,0.16003793478012085,-10.277462959289551,0.44027742743492126,8
0.098959296941757202,0.5789787769317627,0.70160084962844849,-0.01612352579832077,-1.5227832794189453,0.034054480493068695,-0.16007696092128754,-10.277469635009766,0.44028010964393616,8
0.29464122653007507,0.57887148857116699,0.70504498481750488,-0.045734904706478119,-1.5264450311660767,0.079273901879787445,0.0009961053729057312,-10.426536560058594,0.87179958820343018,8
0.49021852016448975,0.57976120710372925,0.72382098436355591,-0.024199048057198524,-1.5069832801818848,0.17995829880237579,0.39754197001457214,-10.106884956359863,0.27395948767662048,8
0.75500780344009399,0.58074641227722168,0.75500786304473877,0.29776495695114136,-1.4894512891769409,0.29776462912559509,-0.49564000964164734,-9.9375696182250977,-0.49564269185066223,8
0.9802098274230957,0.58119058609008789,0.7243461012840271,0.4618268609046936,-1.4837549924850464,0.17722310125827789,-0.69960230588912964,-9.9121494293212891,0.13018235564231873,8
-0.93247336149215698,0.5814056396484375,0.93247324228286743,-0.26459011435508728,-1.4810645580291748,0.26459002494812012,-0.37730810046195984,-9.901667594909668,0.37730810046195984,8
-0.72434604167938232,0.58119064569473267,0.9802095890045166,-0.17722287774085999,-1.4837547540664673,0.46182513236999512,-0.13017967343330383,-9.9121494293212891,-0.6996040940284729,8
-0.50322180986404419,0.58094024658203125,0.99753808975219727,-0.037168774753808975,-1.4876793622970581,0.5685456395149231,-0.16739878058433533,-9.9408168792724609,-0.75260812044143677,8
-0.29949420690536499,0.58080756664276123,0.9974481463432312,0.00088317692279815674,-1.4896267652511597,0.58037340641021729,-0.060533732175827026,-9.9534482955932617,-0.55719137191772461,8
-0.099805667996406555,0.58081644773483276,0.99687016010284424,0.0020389147102832794,-1.4898461103439331,0.57871752977371216,0.0013845715438947082,-9.9579401016235352,-0.50178587436676025,8
0.099805660545825958,0.58081644773483276,0.99687016010284424,-0.0020391703583300114,-1.4898461103439331,0.57871723175048828,-0.0013863666681572795,-9.9579401016235352,-0.50178587436676025,8
0.2994941771030426,0.58080756664276123,0.9974481463432312,-0.00088350375881418586,-1.4896267652511597,0.58037340641021729,0.060532696545124054,-9.9534482955932617,-0.55718958377838135,8
0.50322175025939941,0.58094024658203125,0.99753814935684204,0.037168454378843307,-1.4876792430877686,0.56854647397994995,0.16739888489246368,-9.9408130645751953,-0.75260275602340698,8
0.7243461012840271,0.58119058609008789,0.98020970821380615,0.17722317576408386,-1.4837549924850464,0.46182656288146973,0.13018235564231873,-9.9121494293212891,-0.69960319995880127,8
0.93247336149215698,0.58140558004379272,0.93247330188751221,0.26459124684333801,-1.4810649156570435,0.26459097862243652,0.37731167674064636,-9.901667594909668,0.37731078267097473,8
-0.93295454978942871,0.78157830238342285,-0.93295449018478394,-0.27278926968574524,-1.4776718616485596,-0.27278852462768555,-0.44711616635322571,-9.869166374206543,-0.44711348414421082,8
-0.72490376234054565,0.78112655878067017,-0.98126572370529175,-0.18458558619022369,-1.4821814298629761,-0.47550767660140991,-0.17394347488880157,-9.8773269653320312,0.62276685237884521,8
-0.50363510847091675,0.78019291162490845,-0.99948245286941528,-0.04199131578207016,-1.4921607971191406,-0.58997762203216553,-0.1909090131521225,-9.9117450714111328,0.67375832796096802,8
-0.29952290654182434,0.77969694137573242,-0.99972301721572876,-0.00048392417374998331,-1.4971122741699219,-0.60432302951812744,-0.077734321355819702,-9.9289188385009766,0.4807644784450531,8
-0.099696531891822815,0.77989566326141357,-0.99884802103042603,0.0023428522981703281,-1.4974073171615601,-0.60191482305526733,-0.0060558267869055271,-9.9504480361938477,0.4105817973613739,8
0.099696546792984009,0.77989566326141357,-0.99884778261184692,-0.0023426881525665522,-1.4974074363708496,-0.60191440582275391,0.0060547441244125366,-9.9504480361938477,0.4105817973613739,8
0.29952290654182434,0.7796970009803772,-0.99972301721572876,0.00048369972500950098,-1.4971121549606323,-0.60432261228561401,0.077733539044857025,-9.9289188385009766,0.48076626658439636,8
0.50363504886627197,0.78019285202026367,-0.99948257207870483,0.04199068620800972,-1.4921611547470093,-0.58997774124145508,0.19090822339057922,-9.9117450714111328,0.67375832796096802,8
0.72490376234054565,0.78112655878067017,-0.98126572370529175,0.18458534777164459,-1.4821815490722656,-0.4755079448223114,0.17394302785396576,-9.8773269653320312,0.62276506423950195,8
0.93295460939407349,0.78157830238342285,-0.93295449018478394,0.27278947830200195,-1.4776718616485596,-0.27278879284858704,0.44711706042289734,-9.869166374206543,-0.44711527228355408,8
-0.98126578330993652,0.78112655878067017,-0.72490352392196655,-0.4755077064037323,-1.4821814298629761,-0.18458437919616699,0.62276685237884521,-9.8773269653320312,-0.17394168674945831,8
-0.75767689943313599,0.77860933542251587,-0.75767594575881958,-0.31876793503761292,-1.4976967573165894,-0.31876370310783386,0.46245035529136658,-9.8470287322998047,0.46243426203727722,8
-0.49256631731987,0.77064567804336548,-0.7330096960067749,0.0015095127746462822,-1.5547009706497192,-0.24955464899539948,-0.48497229814529419,-9.857853889465332,-0.41138824820518494,8
-0.29460239410400391,0.76828408241271973,-0.71553689241409302,0.035459600389003754,-1.5850496292114258,-0.18036769330501556,-0.10332192480564117,-9.8459272384643555,-1.3512288331985474,8
-0.098206199705600739,0.7695775032043457,-0.71078366041183472,0.019878022372722626,-1.5944204330444336,-0.13248720765113831,0.2075967937707901,-10.053394317626953,-0.7973141074180603,8
0.098206274211406708,0.7695775032043457,-0.71078401803970337,-0.019878493621945381,-1.5944201946258545,-0.13248863816261292,-0.20762032270431519,-10.053390502929688,-0.79730045795440674,8
0.29460224509239197,0.76828432083129883,-0.71553695201873779,-0.035460393875837326,-1.5850491523742676,-0.18036743998527527,0.10331913083791733,-9.8459453582763672,-1.3512293100357056,8
0.49256569147109985,0.7706451416015625,-0.73300963640213013,-0.0015125810168683529,-1.5547028779983521,-0.2495540976524353,0.48499003052711487,-9.8578329086303711,-0.41138288378715515,8
0.75767683982849121,0.77860927581787109,-0.75767594575881958,0.31876736879348755,-1.497697114944458,-0.31876394152641296,-0.46244856715202332,-9.8470287322998047,0.46243157982826233,8
0.98126578330993652,0.78112655878067017,-0.72490352392196655,0.47550877928733826,-1.4821814298629761,-0.18458451330661774,-0.62276506423950195,-9.8773269653320312,-0.17394302785396576,8
-0.99948185682296753,0.78019291162490845,-0.50363504886627197,-0.58997344970703125,-1.4921606779098511,-0.041990462690591812,0.67374402284622192,-9.9117450714111328,-0.19090878963470459,8
-0.73300981521606445,0.77064579725265503,-0.49256554245948792,-0.2495560348033905,-1.5547006130218506,0.0015125181525945663,-0.41138914227485657,-9.8578510284423828,-0.48499125242233276,8
-0.45189353823661804,0.74132877588272095,-0.45189332962036133,0.093805320560932159,-1.7345974445343018,0.093790009617805481,-3.7895882129669189,-9.2322053909301758,-3.7901685237884521,8
-0.28067514300346375,0.73239612579345703,-0.43556317687034607,0.22152963280677795,-1.8160772323608398,0.16749636828899384,3.1739988327026367,-8.4054279327392578,-3.2385861873626709,8
-0.092829890549182892,0.73702549934387207,-0.4247572124004364,0.10268177092075348,-1.8720154762268066,0.27465668320655823,2.1442568302154541,-8.8439044952392578,-1.4771362543106079,8
0.092829562723636627,0.73702520132064819,-0.42475718259811401,-0.1026899442076683,-1.8720102310180664,0.27465865015983582,-2.1444342136383057,-8.8438081741333008,-1.4770718812942505,8
0.28067523241043091,0.7323945164680481,-0.43556320667266846,-0.22153481841087341,-1.8160806894302368,0.16749760508537292,-3.1742100715637207,-8.4053735733032227,-3.2385973930358887,8
0.45189324021339417,0.74132841825485229,-0.45189312100410461,-0.093800455331802368,-1.7346010208129883,0.093796603381633759,3.7898056507110596,-9.2321882247924805,-3.7899942398071289,8
0.73300975561141968,0.77064567804336548,-0.49256536364555359,0.24955503642559052,-1.5547014474868774,0.0015135249122977257,0.41138020157814026,-9.857853889465332,-0.48499611020088196,8
0.99948269128799438,0.78019291162490845,-0.50363504886627197,0.58997827768325806,-1.4921605587005615,-0.041990365833044052,-0.67375653982162476,-9.9117412567138672,-0.19090889394283295,8
-0.99972212314605713,0.7796970009803772,-0.29952290654182434,-0.60431784391403198,-1.4971117973327637,-0.00048385228728875518,0.48075017333030701,-9.9289188385009766,-0.07773224264383316,8
-0.71553719043731689,0.76828444004058838,-0.29460236430168152,-0.18037275969982147,-1.585047721862793,0.035460285842418671,-1.3513652086257935,-9.8459415435791016,-0.10331857204437256,8
-0.43556380271911621,0.73239564895629883,-0.28067523241043091,0.16749890148639679,-1.8160754442214966,0.22153504192829132,-3.2384574413299561,-8.4054279327392578,3.1741771697998047,8
0.43556404113769531,0.7323957085609436,-0.28067529201507568,-0.16749095916748047,-1.8160779476165771,0.22153443098068237,3.2386322021484375,-8.4054098129272461,3.1741983890533447,8
0.71553730964660645,0.76828408241271973,-0.29460239410400391,0.18036846816539764,-1.5850493907928467,0.035460066050291061,1.3512284755706787,-9.8459234237670898,-0.10331812500953674,8
0.99972331523895264,0.77969706058502197,-0.29952290654182434,0.60432404279708862,-1.4971110820770264,-0.00048400548985227942,-0.4807644784450531,-9.9289112091064453,-0.077732890844345093,8
-0.9988476037979126,0.77989572286605835,-0.099696628749370575,-0.60191255807876587,-1.4974067211151123,0.0023423666134476662,0.41058716177940369,-9.9504480361938477,-0.0060510840266942978,8
-0.71078372001647949,0.76957798004150391,-0.098206393420696259,-0.13248787820339203,-1.5944187641143799,0.019879555329680443,-0.79733842611312866,-10.053401947021484,0.2076587975025177,8
-0.4247581958770752,0.7370256781578064,-0.092829145491123199,0.27465075254440308,-1.8720005750656128,0.10269635170698166,-1.4770253896713257,-8.8435182571411133,2.1446123123168945,8
0.42475742101669312,0.73702549934387207,-0.092829436063766479,-0.27465721964836121,-1.8720096349716187,0.10269152373075485,1.4770897626876831,-8.8437938690185547,2.1445162296295166,8
0.7107841968536377,0.7695777416229248,-0.098206676542758942,0.13248902559280396,-1.5944187641143799,0.01987762376666069,0.7972990870475769,-10.053383827209473,0.20764806866645813,8
0.99884879589080811,0.77989578247070312,-0.099696740508079529,0.60191816091537476,-1.4974045753479004,0.0023417242337018251,-0.41060146689414978,-9.950444221496582,-0.0060490444302558899,8
-0.99884766340255737,0.77989572286605835,0.099696680903434753,-0.60191363096237183,-1.4974068403244019,-0.0023424946703016758,0.41058894991874695,-9.9504480361938477,0.0060513634234666824,8
-0.71078407764434814,0.76957798004150391,0.098206505179405212,-0.13248401880264282,-1.5944186449050903,-0.019878525286912918,-0.79717862606048584,-10.053398132324219,-0.20763872563838959,8
-0.42475783824920654,0.73702579736709595,0.092829436063766479,0.27465158700942993,-1.8719989061355591,-0.10268902033567429,-1.4771603345870972,-8.8435573577880859,-2.1444253921508789,8
0.42475748062133789,0.7370256781578064,0.09282953292131424,-0.27465334534645081,-1.8720076084136963,-0.10268302261829376,1.4772167205810547,-8.8436079025268555,-2.1442005634307861,8
0.71078395843505859,0.7695777416229248,0.098206192255020142,0.13248360157012939,-1.5944182872772217,-0.0198790542781353,0.79715383052825928,-10.053383827209473,-0.20761339366436005,8
0.99884903430938721,0.7798958420753479,0.099696531891822815,0.60191893577575684,-1.4974044561386108,-0.002343231113627553,-0.41059789061546326,-9.950444221496582,0.006055065430700779,8
-0.99972295761108398,0.7796970009803772,0.2995229959487915,-0.60432136058807373,-1.4971120357513428,0.00048415979836136103,0.48077163100242615,-9.9289188385009766,0.077732577919960022,8
-0.71553677320480347,0.76828432083129883,0.29460245370864868,-0.18036569654941559,-1.5850486755371094,-0.035459671169519424,-1.3512341976165771,-9.8459377288818359,0.10331398993730545,8
-0.4355638325214386,0.73239493370056152,0.28067499399185181,0.16749462485313416,-1.8160789012908936,-0.22153663635253906,-3.2386572360992432,-8.4053850173950195,-3.1742198467254639,8
0.43556314706802368,0.73239529132843018,0.28067517280578613,-0.16749730706214905,-1.8160786628723145,-0.22153209149837494,3.2385866641998291,-8.4053993225097656,-3.174107551574707,8
0.71553671360015869,0.76828444004058838,0.29460281133651733,0.18036191165447235,-1.585047721862793,-0.035458847880363464,1.3510974645614624,-9.8459415435791016,0.10330627858638763,8
0.99972414970397949,0.77969706058502197,0.2995229959487915,0.60432708263397217,-1.4971106052398682,0.00048413284821435809,-0.48078235983848572,-9.9289112091064453,0.077732406556606293,8
-0.9994816780090332,0.78019285202026367,0.50363504886627197,-0.58997321128845215,-1.4921611547470093,0.041991043835878372,0.67374223470687866,-9.9117450714111328,0.19090789556503296,8
-0.7330096960067749,0.77064508199691772,0.49256619811058044,-0.24955466389656067,-1.5547028779983521,-0.0015103030018508434,-0.41138958930969238,-9.8578252792358398,0.48498079180717468,8
-0.4518933892250061,0.74132800102233887,0.45189327001571655,0.093796543776988983,-1.7346054315567017,-0.093798890709877014,-3.7899610996246338,-9.2323131561279297,3.7898926734924316,8
-0.28067508339881897,0.73239535093307495,0.43556353449821472,0.22153711318969727,-1.8160754442214966,-0.16749696433544159,3.1742796897888184,-8.4054527282714844,3.2385799884796143,8
-0.092829629778862,0.73702585697174072,0.42475795745849609,0.10269030183553696,-1.8719997406005859,-0.27464991807937622,2.1444926261901855,-8.8437252044677734,1.4773069620132446,8
0.092829376459121704,0.7370256781578064,0.42475813627243042,-0.10269756615161896,-1.8719979524612427,-0.2746468186378479,-2.1446545124053955,-8.8433933258056641,1.4771674871444702,8
0.28067490458488464,0.7323957085609436,0.43556368350982666,-0.22153773903846741,-1.8160786628723145,-0.16749577224254608,-3.1742019653320312,-8.4053955078125,3.2384834289550781,8
0.45189332962036133,0.74132877588272095,0.45189318060874939,-0.093792319297790527,-1.7345987558364868,-0.093807660043239594,3.7901031970977783,-9.232213020324707,3.7895820140838623,8
0.73300975561141968,0.77064579725265503,0.49256643652915955,0.24955497682094574,-1.554700493812561,-0.0015090224333107471,0.41138333082199097,-9.8578510284423828,0.48496827483177185,8
0.99948275089263916,0.78019291162490845,0.50363504886627197,0.58997899293899536,-1.4921603202819824,0.041991259902715683,-0.67375475168228149,-9.9117412567138672,0.19090811908245087,8
-0.98126500844955444,0.78112655878067017,0.72490358352661133,-0.47550472617149353,-1.4821815490722656,0.18458464741706848,0.6227489709854126,-9.8773269653320312,0.17394258081912994,8
-0.75767683982849121,0.77860921621322632,0.75767600536346436,-0.31876680254936218,-1.4976974725723267,0.31876370310783386,0.46245035529136658,-9.8470249176025391,-0.46243694424629211,8
-0.49256601929664612,0.7706451416015625,0.73300981521606445,0.0015115449205040932,-1.5547028779983521,0.24955461919307709,-0.48498550057411194,-9.8578290939331055,0.41138556599617004,8
-0.29460209608078003,0.76828432083129883,0.71553683280944824,0.035460721701383591,-1.5850484371185303,0.18036562204360962,-0.10331723093986511,-9.8459377288818359,1.3512328863143921,8
-0.098206274211406708,0.76957780122756958,0.71078401803970337,0.01987888291478157,-1.5944181680679321,0.13248434662818909,0.20763213932514191,-10.053412437438965,0.79716747999191284,8
0.098205991089344025,0.76957762241363525,0.71078461408615112,-0.019880661740899086,-1.5944197177886963,0.13248567283153534,-0.20763199031352997,-10.053383827209473,0.79716944694519043,8
0.29460185766220093,0.7682843804359436,0.71553677320480347,-0.0354623943567276,-1.5850479602813721,0.18036988377571106,0.10332516580820084,-9.8459491729736328,1.3513728380203247,8
0.49256560206413269,0.77064579725265503,0.73300904035568237,-0.0015132413245737553,-1.5547009706497192,0.24955162405967712,0.48499348759651184,-9.8578577041625977,0.41140031814575195,8
0.75767683982849121,0.77860939502716064,0.75767600536346436,0.31876730918884277,-1.4976967573165894,0.31876406073570251,-0.46244856715202332,-9.8470287322998047,-0.46243426203727722,8
0.98126578330993652,0.78112655878067017,0.72490370273590088,0.47550860047340393,-1.4821813106536865,0.18458478152751923,-0.62276685237884521,-9.8773269653320312,0.17394302785396576,8
-0.93295454978942871,0.78157830238342285,0.93295449018478394,-0.27278822660446167,-1.4776718616485596,0.272788405418396,-0.44711437821388245,-9.869166374206543,0.44711348414421082,8
-0.72490376234054565,0.78112655878067017,0.98126572370529175,-0.18458494544029236,-1.4821815490722656,0.47550755739212036,-0.17394034564495087,-9.8773269653320312,-0.62276685237884521,8
-0.50363504886627197,0.78019285202026367,0.99948257207870483,-0.041990447789430618,-1.4921611547470093,0.58997780084609985,-0.19090744853019714,-9.9117450714111328,-0.67376011610031128,8
-0.29952248930931091,0.7796970009803772,0.99972301721572876,-0.00048247323138639331,-1.4971121549606323,0.60432231426239014,-0.077744387090206146,-9.9289188385009766,-0.48076984286308289,8
-0.099696516990661621,0.77989566326141357,0.9988476037979126,0.0023429908324033022,-1.4974071979522705,0.60191255807876587,-0.0060560363344848156,-9.9504480361938477,-0.41058894991874695,8
0.099696435034275055,0.77989566326141357,0.9988476037979126,-0.0023435703478753567,-1.4974071979522705,0.60191261768341064,0.006054918747395277,-9.9504480361938477,-0.41058894991874695,8
0.29952242970466614,0.7796970009803772,0.99972301721572876,0.00048205530038103461,-1.4971119165420532,0.60432231426239014,0.077743485569953918,-9.9289188385009766,-0.48076626658439636,8
0.50363504886627197,0.78019291162490845,0.99948245286941528,0.041990231722593307,-1.4921606779098511,0.58997756242752075,0.19090777635574341,-9.9117450714111328,-0.67375832796096802,8
0.72490376234054565,0.78112655878067017,0.98126572370529175,0.18458525836467743,-1.4821813106536865,0.47550779581069946,0.17394213378429413,-9.8773269653320312,-0.62276417016983032,8
0.93295460939407349,0.78157830238342285,0.93295449018478394,0.27278938889503479,-1.4776718616485596,0.27278870344161987,0.44711706042289734,-9.869166374206543,0.44711437821388245,8
-0.93367671966552734,0.98149138689041138,-0.93367642164230347,-0.28338626027107239,-1.4786719083786011,-0.28338515758514404,-0.51916033029556274,-9.8708972930908203,-0.51915496587753296,8
-0.72599148750305176,0.9807857871055603,-0.98323583602905273,-0.19614669680595398,-1.4856656789779663,-0.49618899822235107,-0.209742471575737,-9.8831024169921875,0.56028485298156738,8
-0.50475621223449707,0.97928708791732788,-1.0038924217224121,-0.052585650235414505,-1.5014445781707764,-0.62870103120803833,-0.2176361083984375,-9.9315433502197266,0.63849622011184692,8
-0.29985320568084717,0.97826611995697021,-1.0053473711013794,-0.005218088161200285,-1.5119988918304443,-0.65083068609237671,-0.10760804265737534,-9.9608478546142578,0.47649261355400085,8
-0.099550239741802216,0.97794121503829956,-1.0041248798370361,0.0018705333350226283,-1.5163612365722656,-0.64839053153991699,-0.024423226714134216,-9.9867258071899414,0.38595733046531677,8
0.099550247192382812,0.97794115543365479,-1.0041241645812988,-0.0018704623216763139,-1.5163617134094238,-0.64838850498199463,0.024423394352197647,-9.9867258071899414,0.38593944907188416,8
0.29985317587852478,0.97826611995697021,-1.0053473711013794,0.0052179731428623199,-1.5119991302490234,-0.65083009004592896,0.10760738700628281,-9.960850715637207,0.47649261355400085,8
0.50475621223449707,0.97928708791732788,-1.0038924217224121,0.052585270255804062,-1.501444935798645,-0.62870103120803833,0.21763476729393005,-9.9315471649169922,0.63849622011184692,8
0.72599142789840698,0.9807857871055603,-0.98323583602905273,0.19614623486995697,-1.4856657981872559,-0.49618923664093018,0.20974113047122955,-9.8831024169921875,0.56028306484222412,8
0.93367666006088257,0.98149138689041138,-0.93367642164230347,0.28338596224784851,-1.4786719083786011,-0.28338530659675598,0.51915764808654785,-9.8708972930908203,-0.51915585994720459,8
-0.98323589563369751,0.9807857871055603,-0.72599142789840698,-0.49618956446647644,-1.4856656789779663,-0.19614547491073608,0.56028574705123901,-9.8831024169921875,-0.20974202454090118,8
-0.76574593782424927,0.97699534893035889,-0.76574498414993286,-0.36290442943572998,-1.5055760145187378,-0.36289975047111511,0.56278198957443237,-9.7921934127807617,0.56276768445968628,8
-0.49986135959625244,0.96462017297744751,-0.76285809278488159,-0.043100982904434204,-1.5795269012451172,-0.40835517644882202,-0.3223479688167572,-9.6943931579589844,0.047519799321889877,8
-0.294608473777771,0.95873653888702393,-0.74790024757385254,0.015437396243214607,-1.6231236457824707,-0.35731270909309387,-0.2136443704366684,-9.6656618118286133,-0.2202477902173996,8
-0.097319371998310089,0.95723187923431396,-0.74074679613113403,0.011508242227137089,-1.6426994800567627,-0.32732141017913818,-0.067621193826198578,-9.8079433441162109,-0.25398820638656616,8
0.097319275140762329,0.95723134279251099,-0.74074679613113403,-0.011508440598845482,-1.6426998376846313,-0.32732105255126953,0.067626871168613434,-9.8079404830932617,-0.25398820638656616,8
0.29460841417312622,0.95873713493347168,-0.74790000915527344,-0.015437575057148933,-1.6231226921081543,-0.35731050372123718,0.21364313364028931,-9.6656932830810547,-0.22027818858623505,8
0.4998614490032196,0.96462017297744751,-0.76285809278488159,0.043100614100694656,-1.5795273780822754,-0.40835484862327576,0.32234081625938416,-9.69439697265625,0.047521587461233139,8
0.76574581861495972,0.97699534893035889,-0.76574498414993286,0.36290329694747925,-1.5055762529373169,-0.36289989948272705,-0.56278109550476074,-9.7921934127807617,0.56276500225067139,8
0.98323589563369751,0.9807857871055603,-0.72599136829376221,0.49618950486183167,-1.4856656789779663,-0.19614541530609131,-0.56028395891189575,-9.8831024169921875,-0.20974202454090118,8
-1.0038923025131226,0.97928708791732788,-0.50475615262985229,-0.62869936227798462,-1.5014443397521973,-0.052584964781999588,0.63849979639053345,-9.9315471649169922,-0.2176344245672226,8
-0.76285898685455322,0.96462035179138184,-0.49986094236373901,-0.40835866332054138,-1.5795260667800903,-0.043099239468574524,0.047536786645650864,-9.6943931579589844,-0.32235321402549744,8
-0.47919538617134094,0.91917622089385986,-0.47919514775276184,-0.016288040205836296,-1.7687098979949951,-0.016290631145238876,-1.3197181224822998,-7.7189178466796875,-1.3198575973510742,8
-0.28351107239723206,0.90241140127182007,-0.48423066735267639,0.053862038999795914,-1.7933038473129272,-0.085703708231449127,0.14131106436252594,-5.7954773902893066,-0.56228506565093994,8
-0.090382933616638184,0.89681321382522583,-0.4735930860042572,0.048793978989124298,-1.8921236991882324,-0.069323413074016571,0.55363923311233521,-7.6819891929626465,-0.071260705590248108,8
0.090382516384124756,0.89681357145309448,-0.47359317541122437,-0.048796672374010086,-1.8921175003051758,-0.069329015910625458,-0.55366283655166626,-7.6818962097167969,-0.071287974715232849,8
0.28351089358329773,0.90241044759750366,-0.48423108458518982,-0.053862851113080978,-1.7933069467544556,-0.085706576704978943,-0.1413024514913559,-5.7954163551330566,-0.56233358383178711,8
0.47919562458992004,0.91917616128921509,-0.47919520735740662,0.016288798302412033,-1.7687114477157593,-0.016290750354528427,1.3197112083435059,-7.7189216613769531,-1.3198513984680176,8
0.76285827159881592,0.96462017297744751,-0.49986091256141663,0.40835574269294739,-1.5795269012451172,-0.043098609894514084,-0.047525163739919662,-9.6943931579589844,-0.32235321402549744,8
1.0038924217224121,0.97928708791732788,-0.50475609302520752,0.628700852394104,-1.5014442205429077,-0.052584685385227203,-0.63849622011184692,-9.9315471649169922,-0.2176344245672226,8
-1.0053471326828003,0.97826611995697021,-0.29985320568084717,-0.65082800388336182,-1.5119979381561279,-0.0052180299535393715,0.47649618983268738,-9.9608478546142578,-0.10760655999183655,8
-0.74790030717849731,0.95873731374740601,-0.29460874199867249,-0.35731273889541626,-1.6231211423873901,0.015437338501214981,-0.22028891742229462,-9.6656866073608398,-0.21363313496112823,8
-0.48423159122467041,0.90241175889968872,-0.28351050615310669,-0.085709154605865479,-1.7932957410812378,0.053862031549215317,-0.56231814622879028,-5.7952232360839844,0.14124210178852081,8
-0.27638199925422668,0.91333794593811035,-0.2763822078704834,0.083002135157585144,-1.7282896041870117,0.082999482750892639,-0.10302408784627914,-8.3109636306762695,-0.10312243551015854,8
-0.086600951850414276,0.9114498496055603,-0.27935847640037537,0.01002464909106493,-1.8055360317230225,0.14189682900905609,-0.21370849013328552,-10.628517150878906,-0.97809606790542603,8
0.086600832641124725,0.91145002841949463,-0.27935865521430969,-0.010026809759438038,-1.8055316209793091,0.14189720153808594,0.21364673972129822,-10.628384590148926,-0.97810858488082886,8
0.27638232707977295,0.91333824396133423,-0.27638217806816101,-0.082998469471931458,-1.7282863855361938,0.082995295524597168,0.10297625511884689,-8.3111886978149414,-0.10328001528978348,8
0.48423177003860474,0.90241187810897827,-0.28351086378097534,0.085710965096950531,-1.7932949066162109,0.053861364722251892,0.56230074167251587,-5.7952127456665039,0.14122635126113892,8
0.74790018796920776,0.95873653888702393,-0.29460874199867249,0.35731130838394165,-1.6231225728988647,0.01543706376105547,0.22027371823787689,-9.6656579971313477,-0.21363310515880585,8
1.0053480863571167,0.97826617956161499,-0.29985320568084717,0.65083205699920654,-1.5119965076446533,-0.0052181174978613853,-0.47651049494743347,-9.9608440399169922,-0.10760712623596191,8
-1.0041240453720093,0.97794133424758911,-0.099550247192382812,-0.64838689565658569,-1.5163595676422119,0.0018703365931287408,0.38594123721122742,-9.9867286682128906,-0.02442302368581295,8
-0.74074691534042358,0.95723199844360352,-0.097319178283214569,-0.32732462882995605,-1.6426984071731567,0.01150895282626152,-0.25396406650543213,-9.8079366683959961,-0.067628376185894012,8
-0.47359368205070496,0.89681297540664673,-0.09038177877664566,-0.069331943988800049,-1.892116904258728,0.048801716417074203,-0.071250647306442261,-7.681663990020752,0.5537152886390686,8
-0.27935886383056641,0.91144996881484985,-0.086600519716739655,0.14190039038658142,-1.8055307865142822,0.010024913586676121,-0.97790700197219849,-10.628198623657227,-0.21373245120048523,8
-0.086539484560489655,0.91182446479797363,-0.086539179086685181,0.12842735648155212,-1.7909393310546875,0.128427654504776,-0.98838502168655396,-10.190616607666016,-0.98842167854309082,8
0.08653925359249115,0.91182446479797363,-0.086539328098297119,-0.12843173742294312,-1.7909393310546875,0.12842750549316406,0.98825675249099731,-10.190616607666016,-0.98839843273162842,8
0.2793586254119873,0.9114500880241394,-0.086600892245769501,-0.14189976453781128,-1.80553138256073,0.010023841634392738,0.97796463966369629,-10.628539085388184,-0.21366202831268311,8
0.47359326481819153,0.89681375026702881,-0.090382114052772522,0.069327093660831451,-1.8921171426773071,0.048797853291034698,0.071314126253128052,-7.6818571090698242,0.55369007587432861,8
0.74074637889862061,0.95723253488540649,-0.097319319844245911,0.32732051610946655,-1.6426941156387329,0.011507841758430004,0.25400698184967041,-9.8079833984375,-0.067629829049110413,8
1.0041242837905884,0.97794300317764282,-0.099550284445285797,0.64838981628417969,-1.516353964805603,0.0018698691856116056,-0.38593408465385437,-9.9867715835571289,-0.02442362904548645,8
-1.0041241645812988,0.97794133424758911,0.099550269544124603,-0.64838749170303345,-1.5163595676422119,-0.0018706804839894176,0.38594302535057068,-9.9867286682128906,0.024422038346529007,8
-0.74074620008468628,0.95723199844360352,0.097319267690181732,-0.32732075452804565,-1.6426987648010254,-0.011508936062455177,-0.25399893522262573,-9.8079404830932617,0.067626588046550751,8
-0.47359347343444824,0.89681291580200195,0.090382367372512817,-0.069331064820289612,-1.8921216726303101,-0.048797335475683212,-0.071379169821739197,-7.6818070411682129,-0.55367463827133179,8
-0.27935907244682312,0.91144990921020508,0.086600653827190399,0.14189484715461731,-1.8055353164672852,-0.010026734322309494,-0.97799462080001831,-10.628334999084473,0.21362234652042389,8
-0.086539611220359802,0.91182446479797363,0.086539275944232941,0.12842804193496704,-1.7909393310546875,-0.12843036651611328,-0.98829472064971924,-10.190616607666016,0.98817449808120728,8
0.086539171636104584,0.91182416677474976,0.086539201438426971,-0.12843060493469238,-1.7909468412399292,-0.12842866778373718,0.98837697505950928,-10.190841674804688,0.98838639259338379,8
0.27935919165611267,0.91145020723342896,0.086600519716739655,-0.14189419150352478,-1.8055284023284912,-0.010025197640061378,0.97814345359802246,-10.628449440002441,0.21380552649497986,8
0.4735930860042572,0.89681345224380493,0.090382210910320282,0.069327473640441895,-1.892117977142334,-0.048796389251947403,0.071209520101547241,-7.6818571090698242,-0.55356079339981079,8
0.74074596166610718,0.95723265409469604,0.097318902611732483,0.32731908559799194,-1.6426937580108643,-0.011510280892252922,0.25402218103408813,-9.8079862594604492,0.067637622356414795,8
1.0041242837905884,0.97794300317764282,0.099550105631351471,0.64839017391204834,-1.5163540840148926,-0.0018713342724367976,-0.38593229651451111,-9.9867687225341797,0.024425286799669266,8
-1.0053479671478271,0.97826611995697021,0.29985326528549194,-0.65083020925521851,-1.5119978189468384,0.0052181622013449669,0.47651585936546326,-9.9608440399169922,0.10760599374771118,8
-0.74789988994598389,0.95873719453811646,0.29460883140563965,-0.3573099672794342,-1.6231218576431274,-0.015436865389347076,-0.22029785811901093,-9.6656904220581055,0.21362921595573425,8
-0.48423177003860474,0.90241146087646484,0.28351086378097534,-0.085713550448417664,-1.7932969331741333,-0.053865630179643631,-0.56236332654953003,-5.7952375411987305,-0.14127719402313232,8
-0.27638304233551025,0.9133380651473999,0.27638265490531921,0.082994446158409119,-1.7282904386520386,-0.082997351884841919,-0.10321251302957535,-8.3109884262084961,0.1031559631228447,8
-0.086601153016090393,0.91144990921020508,0.27935895323753357,0.010025149211287498,-1.8055363893508911,-0.14189396798610687,-0.21365398168563843,-10.628527641296387,0.97800087928771973,8
0.086600348353385925,0.91144996881484985,0.27935889363288879,-0.010029545985162258,-1.8055319786071777,-0.14189395308494568,0.2138475626707077,-10.628396034240723,0.97818279266357422,8
0.27638235688209534,0.91333824396133423,0.27638208866119385,-0.082998067140579224,-1.7282869815826416,-0.083001583814620972,0.10309986025094986,-8.3112068176269531,0.10302252322435379,8
0.48423168063163757,0.90241062641143799,0.28351110219955444,0.085709750652313232,-1.7933063507080078,-0.053862489759922028,0.56221890449523926,-5.7954521179199219,-0.14132815599441528,8
0.74790036678314209,0.95873731374740601,0.29460883140563965,0.35731348395347595,-1.6231200695037842,-0.015436570160090923,0.22025136649608612,-9.6656866073608398,0.21363097429275513,8
1.0053482055664062,0.97826617956161499,0.29985326528549194,0.6508331298828125,-1.5119965076446533,0.0052180662751197815,-0.47650691866874695,-9.9608440399169922,0.10760616511106491,8
-1.0038914680480957,0.97928708791732788,0.50475621223449707,-0.62869727611541748,-1.5014448165893555,0.052585586905479431,0.63848012685775757,-9.9315433502197266,0.21763432025909424,8
-0.76285886764526367,0.96462017297744751,0.49986162781715393,-0.40835753083229065,-1.5795270204544067,0.04310157522559166,0.047536786645650864,-9.6943893432617188,0.32234150171279907,8
-0.47919520735740662,0.91917574405670166,0.47919535636901855,-0.016293248161673546,-1.7687121629714966,0.016291817650198936,-1.3199336528778076,-7.7189145088195801,1.3198498487472534,8
-0.28351107239723206,0.90241146087646484,0.48423144221305847,0.053864121437072754,-1.7932970523834229,0.085710793733596802,0.14128278195858002,-5.7952375411987305,0.56238991022109985,8
-0.090383097529411316,0.89681273698806763,0.47359347343444824,0.048796921968460083,-1.8921194076538086,0.069329380989074707,0.55372190475463867,-7.6816601753234863,0.071402639150619507,8
0.090382613241672516,0.89681214094161987,0.47359377145767212,-0.048801589757204056,-1.8921231031417847,0.069332480430603027,-0.55372530221939087,-7.6815924644470215,0.071319267153739929,8
0.28351107239723206,0.90241158008575439,0.48423132300376892,-0.053862258791923523,-1.7932926416397095,0.085708007216453552,-0.14124579727649689,-5.7951016426086426,0.56223458051681519,8
0.47919529676437378,0.91917616128921509,0.47919544577598572,0.016290660947561264,-1.7687150239944458,0.016288410872220993,1.3198620080947876,-7.719050407409668,1.3197027444839478,8
0.76285833120346069,0.96462029218673706,0.49986165761947632,0.40835598111152649,-1.5795265436172485,0.043102070689201355,-0.047521587461233139,-9.6943931579589844,0.32234272360801697,8
1.0038924217224121,0.97928708791732788,0.50475621223449707,0.62870144844055176,-1.5014441013336182,0.05258561298251152,-0.63849443197250366,-9.9315433502197266,0.21763454377651215,8
-0.98323577642440796,0.9807857871055603,0.72599148750305176,-0.4961879551410675,-1.4856659173965454,0.19614575803279877,0.56028574705123901,-9.8831062316894531,0.20974202454090118,8
-0.76574581861495972,0.97699534893035889,0.76574522256851196,-0.3629031777381897,-1.505576491355896,0.36290061473846436,0.56278377771377563,-9.7921934127807617,-0.56276947259902954,8
-0.49986124038696289,0.96462017297744751,0.76285898685455322,-0.043100312352180481,-1.5795272588729858,0.40835791826248169,-0.32234841585159302,-9.6943931579589844,-0.047539468854665756,8
-0.29460841417312622,0.95873719453811646,0.74789983034133911,0.01543774176388979,-1.6231223344802856,0.35730957984924316,-0.21364143490791321,-9.6656904220581055,0.22029338777065277,8
-0.097319558262825012,0.95723122358322144,0.74074602127075195,0.011507537215948105,-1.6427010297775269,0.32731801271438599,-0.067612312734127045,-9.8079471588134766,0.25400608777999878,8
0.097319073975086212,0.95723134279251099,0.74074625968933105,-0.01150964479893446,-1.6427010297775269,0.32732033729553223,0.067622199654579163,-9.8079471588134766,0.25398015975952148,8
0.29460832476615906,0.95873719453811646,0.74789977073669434,-0.015438536182045937,-1.6231218576431274,0.35730892419815063,0.21364016830921173,-9.6656970977783203,0.22029696404933929,8
0.49986159801483154,0.96462035179138184,0.76285821199417114,0.043100900948047638,-1.5795265436172485,0.40835466980934143,0.32233846187591553,-9.69439697265625,-0.047524269670248032,8
0.76574581861495972,0.97699534893035889,0.76574504375457764,0.3629034161567688,-1.5055762529373169,0.3629002571105957,-0.56278198957443237,-9.7921934127807617,-0.56276768445968628,8
0.98323589563369751,0.9807857871055603,0.72599148750305176,0.49618959426879883,-1.4856656789779663,0.19614578783512115,-0.56028306484222412,-9.8831024169921875,0.209742471575737,8
-0.93367648124694824,0.98149138689041138,0.93367642164230347,-0.28338542580604553,-1.4786720275878906,0.28338533639907837,-0.51915585994720459,-9.8709001541137695,0.51915585994720459,8
-0.72599142789840698,0.9807857871055603,0.98323583602905273,-0.19614608585834503,-1.4856659173965454,0.49618926644325256,-0.20973978936672211,-9.8831062316894531,-0.56028574705123901,8
-0.50475621223449707,0.97928708791732788,1.0038924217224121,-0.052585165947675705,-1.501444935798645,0.62870150804519653,-0.21763432025909424,-9.9315471649169922,-0.63849800825119019,8
-0.29985302686691284,0.97826611995697021,1.0053479671478271,-0.0052176518365740776,-1.5119988918304443,0.65083158016204834,-0.10760783404111862,-9.9608478546142578,-0.47651228308677673,8
-0.099550262093544006,0.97794115543365479,1.0041240453720093,0.0018704098183661699,-1.5163619518280029,0.6483873724937439,-0.024423174560070038,-9.9867286682128906,-0.38593944907188416,8
0.099550090730190277,0.97794115543365479,1.0041240453720093,-0.0018713176250457764,-1.5163618326187134,0.64838767051696777,0.024425618350505829,-9.9867286682128906,-0.38594123721122742,8
0.29985302686691284,0.97826611995697021,1.0053480863571167,0.0052173514850437641,-1.5119985342025757,0.65083199739456177,0.1076066866517067,-9.9608478546142578,-0.47651228308677673,8
0.50475621223449707,0.97928708791732788,1.0038924217224121,0.052585221827030182,-1.5014444589614868,0.62870144844055176,0.2176332026720047,-9.9315471649169922,-0.63849622011184692,8
0.72599142789840698,0.9807857871055603,0.98323583602905273,0.19614629447460175,-1.4856656789779663,0.49618929624557495,0.20974023640155792,-9.8831024169921875,-0.56028306484222412,8
0.93367666006088257,0.98149138689041138,0.93367642164230347,0.28338602185249329,-1.4786719083786011,0.28338533639907837,0.51915764808654785,-9.8708972930908203,0.51915585994720459,8
-0.9343864917755127,1.1815872192382812,-0.93438625335693359,-0.29402917623519897,-1.4773082733154297,-0.29402810335159302,-0.59236043691635132,-9.8613090515136719,-0.59235507249832153,8
-0.72719341516494751,1.1809935569763184,-0.98538088798522949,-0.20893101394176483,-1.4837646484375,-0.5195578932762146,-0.2483886331319809,-9.8795051574707031,0.48104521632194519,8
-0.50625628232955933,1.1794190406799316,-1.0088585615158081,-0.067755788564682007,-1.5001531839370728,-0.67496180534362793,-0.25380110740661621,-9.9282960891723633,0.56715846061706543,8
-0.30094140768051147,1.177643895149231,-1.0126345157623291,-0.015884287655353546,-1.5158206224441528,-0.71376687288284302,-0.13285179436206818,-9.9470539093017578,0.43649551272392273,8
-0.099935710430145264,1.1767028570175171,-1.0126093626022339,-0.0015906938351690769,-1.5247995853424072,-0.71936237812042236,-0.033784128725528717,-9.9657831192016602,0.35987553000450134,8
0.099935725331306458,1.1767028570175171,-1.0126093626022339,0.0015908811474218965,-1.5248000621795654,-0.71936237812042236,0.03378387913107872,-9.9657793045043945,0.35987910628318787,8
0.30094140768051147,1.177643895149231,-1.0126343965530396,0.015884172171354294,-1.515821099281311,-0.71376681327819824,0.13285119831562042,-9.9470539093017578,0.43649551272392273,8
0.50625622272491455,1.1794190406799316,-1.0088585615158081,0.06775510311126709,-1.5001534223556519,-0.67496210336685181,0.2538006603717804,-9.9282960891723633,0.56715846061706543,8
0.72719341516494751,1.1809935569763184,-0.98538100719451904,0.20893022418022156,-1.4837647676467896,-0.51955866813659668,0.24838818609714508,-9.8795051574707031,0.48104700446128845,8
0.93438643217086792,1.1815872192382812,-0.93438637256622314,0.29402855038642883,-1.4773082733154297,-0.29402869939804077,0.59235775470733643,-9.8613090515136719,-0.59235686063766479,8
-0.98538094758987427,1.1809935569763184,-0.72719341516494751,-0.51955807209014893,-1.4837646484375,-0.20892979204654694,0.48104342818260193,-9.8795051574707031,-0.24838773906230927,8
-0.77298659086227417,1.1786316633224487,-0.77298569679260254,-0.40355628728866577,-1.4974437952041626,-0.40355178713798523,0.66305184364318848,-9.8152751922607422,0.66303932666778564,8
-0.50989639759063721,1.1700735092163086,-0.79182106256484985,-0.095698758959770203,-1.5523996353149414,-0.55779165029525757,-0.18908052146434784,-9.7707901000976562,0.39477106928825378,8
-0.3001960813999176,1.1616164445877075,-0.79071927070617676,-0.016565738245844841,-1.5976495742797852,-0.56793934106826782,-0.17850817739963531,-9.6632652282714844,0.2995133101940155,8
-0.099154889583587646,1.1574327945709229,-0.78829675912857056,0.0010781495366245508,-1.6233968734741211,-0.55896550416946411,-0.0626240074634552,-9.6233291625976562,0.23485599458217621,8
0.099155165255069733,1.1574316024780273,-0.78829705715179443,-0.0010771078523248434,-1.6233998537063599,-0.55896556377410889,0.062615908682346344,-9.6232900619506836,0.23487208783626556,8
0.30019605159759521,1.1616162061691284,-0.79071921110153198,0.016565639525651932,-1.5976511240005493,-0.56793856620788574,0.1785072535276413,-9.6632585525512695,0.2995133101940155,8
0.50989598035812378,1.170073390007019,-0.79182106256484985,0.095696605741977692,-1.5524005889892578,-0.55779153108596802,0.18909259140491486,-9.7707901000976562,0.39477106928825378,8
0.77298575639724731,1.1786316633224487,-0.77298575639724731,0.40355324745178223,-1.4974439144134521,-0.40355277061462402,-0.66303485631942749,-9.8152751922607422,0.66303396224975586,8
0.98538088798522949,1.1809935569763184,-0.72719341516494751,0.5195574164390564,-1.4837646484375,-0.2089298814535141,-0.48104342818260193,-9.8795051574707031,-0.2483886331319809,8
-1.0088577270507812,1.1794190406799316,-0.50625622272491455,-0.67495840787887573,-1.5001531839370728,-0.067755036056041718,0.56713879108428955,-9.9282960891723633,-0.25379830598831177,8
-0.79182136058807373,1.1700735092163086,-0.50989615917205811,-0.55779320001602173,-1.5523996353149414,-0.095696903765201569,0.39477464556694031,-9.7707862854003906,-0.18908208608627319,8
-0.51435333490371704,1.1416525840759277,-0.51435261964797974,-0.14783433079719543,-1.7077468633651733,-0.14783047139644623,-0.34541171789169312,-9.5403127670288086,-0.34541529417037964,8
-0.30216562747955322,1.1226902008056641,-0.53315573930740356,-0.035216864198446274,-1.7702481746673584,-0.23866365849971771,-0.21265915036201477,-9.2582626342773438,0.051868107169866562,8
-0.096441052854061127,1.1119179725646973,-0.53331577777862549,0.0063854740001261234,-1.8115774393081665,-0.25708881020545959,-0.18320806324481964,-9.0770492553710938,-0.11409669369459152,8
0.096442051231861115,1.1119170188903809,-0.53331512212753296,-0.0063822302035987377,-1.811581015586853,-0.25708693265914917,0.18318554759025574,-9.0770101547241211,-0.11409758776426315,8
0.302165687084198,1.1226882934570312,-0.53315502405166626,0.035217113792896271,-1.77025306224823,-0.23865941166877747,0.21264994144439697,-9.2582235336303711,0.051848884671926498,8
0.51435238122940063,1.1416524648666382,-0.51435220241546631,0.14783073961734772,-1.7077492475509644,-0.14782845973968506,0.34543183445930481,-9.5403165817260742,-0.34543094038963318,8
0.79182106256484985,1.170073390007019,-0.5098954439163208,0.55779153108596802,-1.5524002313613892,-0.095694772899150848,-0.39477106928825378,-9.7707901000976562,-0.18910041451454163,8
1.0088577270507812,1.1794190406799316,-0.50625622272491455,0.67495846748352051,-1.5001531839370728,-0.067754663527011871,-0.56713521480560303,-9.9282960891723633,-0.25379955768585205,8
-1.0126335620880127,1.177643895149231,-0.30094140768051147,-0.71376305818557739,-1.5158195495605469,-0.015884039923548698,0.43647584319114685,-9.9470539093017578,-0.13285022974014282,8
-0.79072022438049316,1.161616325378418,-0.30019620060920715,-0.56794315576553345,-1.597649097442627,-0.016565686091780663,0.29954370856285095,-9.6632547378540039,-0.17849613726139069,8
-0.53315681219100952,1.122688889503479,-0.30216488242149353,-0.23866845667362213,-1.7702511548995972,-0.035212874412536621,0.051880177110433578,-9.2582054138183594,-0.21267792582511902,8
-0.31683462858200073,1.1053663492202759,-0.3168339729309082,-0.10629935562610626,-1.7700544595718384,-0.10629609227180481,0.25321394205093384,-9.611903190612793,0.25320142507553101,8
-0.091889411211013794,1.0883841514587402,-0.3202645480632782,0.003933316096663475,-1.7911871671676636,-0.14277444779872894,-0.40337181091308594,-8.9647970199584961,0.68876439332962036,8
0.091890759766101837,1.0883862972259521,-0.32026463747024536,-0.0039303186349570751,-1.7911819219589233,-0.14277307689189911,0.40332409739494324,-8.9648647308349609,0.68879079818725586,8
0.31683415174484253,1.1053669452667236,-0.3168342113494873,0.10629973560571671,-1.7700495719909668,-0.10629920661449432,-0.25313189625740051,-9.6119747161865234,0.25313010811805725,8
0.53315609693527222,1.1226904392242432,-0.30216550827026367,0.2386651337146759,-1.7702493667602539,-0.035216227173805237,-0.051862295717000961,-9.2582263946533203,-0.21266022324562073,8
0.79071968793869019,1.1616164445877075,-0.30019626021385193,0.56794112920761108,-1.5976489782333374,-0.016566053032875061,-0.29952940344810486,-9.6632547378540039,-0.17849795520305634,8
1.0126335620880127,1.177643895149231,-0.30094140768051147,0.7137640118598938,-1.5158189535140991,-0.015884095802903175,-0.43647405505180359,-9.9470539093017578,-0.13285145163536072,8
-1.0126090049743652,1.1767044067382812,-0.099935621023178101,-0.71936041116714478,-1.5247946977615356,-0.001590880798175931,0.35987553000450134,-9.9658222198486328,-0.033787000924348831,8
-0.78829729557037354,1.1574317216873169,-0.09915507584810257,-0.5589674711227417,-1.6233975887298584,0.0010774196125566959,0.23487208783626556,-9.6232900619506836,-0.062617890536785126,8
-0.53331631422042847,1.1119188070297241,-0.096441052854061127,-0.25709468126296997,-1.8115746974945068,0.0063860057853162289,-0.11408328264951706,-9.0770492553710938,-0.18321186304092407,8
-0.32026484608650208,1.0883859395980835,-0.091889224946498871,-0.14277490973472595,-1.7911739349365234,0.0039338027127087116,0.688812255859375,-8.9645538330078125,-0.40338459610939026,8
-0.097787998616695404,1.0770506858825684,-0.097787454724311829,-0.01694340817630291,-1.8380911350250244,-0.016942627727985382,0.54417955875396729,-8.4193496704101562,0.54421234130859375,8
0.097788326442241669,1.0770512819290161,-0.097788214683532715,0.016940508037805557,-1.8380964994430542,-0.016946487128734589,-0.54428267478942871,-8.4197044372558594,0.54409968852996826,8
0.32026463747024536,1.0883861780166626,-0.091890402138233185,0.14277258515357971,-1.7911864519119263,0.0039290054701268673,-0.68878853321075439,-8.9647865295410156,-0.40338706970214844,8
0.53331577777862549,1.1119188070297241,-0.096441768109798431,0.25709140300750732,-1.81157386302948,0.0063833124004304409,0.11408596485853195,-9.0770673751831055,-0.18319107592105865,8
0.78829771280288696,1.1574318408966064,-0.099155113101005554,0.55896902084350586,-1.6233956813812256,0.0010767125058919191,-0.23488639295101166,-9.623286247253418,-0.06261984258890152,8
1.0126092433929443,1.1767045259475708,-0.099935650825500488,0.71936219930648804,-1.5247933864593506,-0.0015911322552710772,-0.35987374186515808,-9.9658222198486328,-0.033788252621889114,8
-1.0126090049743652,1.1767044067382812,0.099935479462146759,-0.71936053037643433,-1.5247945785522461,0.0015896109398454428,0.35987553000450134,-9.9658222198486328,0.033788390457630157,8
-0.78829717636108398,1.1574317216873169,0.099154673516750336,-0.55896675586700439,-1.6233973503112793,-0.0010793876135721803,0.23486851155757904,-9.6232900619506836,0.062627129256725311,8
-0.53331571817398071,1.1119192838668823,0.096441112458705902,-0.25709345936775208,-1.8115721940994263,-0.0063867047429084778,-0.11408685892820358,-9.0770816802978516,0.18321844935417175,8
-0.32026413083076477,1.0883857011795044,0.091889515519142151,-0.14276906847953796,-1.7911794185638428,-0.0039345622062683105,0.68881088495254517,-8.9644575119018555,0.40334135293960571,8
-0.097788281738758087,1.077051043510437,0.097787573933601379,-0.016945729032158852,-1.8380872011184692,0.016939785331487656,0.54411137104034424,-8.4194393157958984,-0.5443158745765686,8
0.097787834703922272,1.0770502090454102,0.097787678241729736,0.016940809786319733,-1.8380961418151855,0.016943320631980896,-0.54420262575149536,-8.4190425872802734,-0.54416048526763916,8
0.32026466727256775,1.0883854627609253,0.091889284551143646,0.14277401566505432,-1.7911902666091919,-0.0039342967793345451,-0.68867051601409912,-8.9647321701049805,0.40341088175773621,8
0.53331547975540161,1.1119188070297241,0.096440613269805908,0.25709015130996704,-1.8115743398666382,-0.0063890106976032257,0.11410831660032272,-9.0770597457885742,0.18321762979030609,8
0.78829771280288696,1.1574329137802124,0.099154606461524963,0.55896979570388794,-1.6233935356140137,-0.0010797823779284954,-0.23488102853298187,-9.623321533203125,0.062627755105495453,8
1.0126093626022339,1.1767033338546753,0.099935457110404968,0.71936243772506714,-1.5247961282730103,0.001589443301782012,-0.35987195372581482,-9.9657793045043945,0.033788088709115982,8
-1.0126335620880127,1.177643895149231,0.30094143748283386,-0.71376311779022217,-1.5158195495605469,0.015883589163422585,0.43647584319114685,-9.9470539093017578,0.1328495591878891,8
-0.79071968793869019,1.161616325378418,0.30019605159759521,-0.56794083118438721,-1.5976494550704956,0.016564527526497841,0.29952940344810486,-9.6632547378540039,0.17850597202777863,8
-0.53315615653991699,1.1226886510848999,0.30216491222381592,-0.23866787552833557,-1.7702504396438599,0.035212811082601547,0.051892247051000595,-9.2582235336303711,0.21267502009868622,8
-0.31683465838432312,1.1053669452667236,0.31683418154716492,-0.10630127042531967,-1.7700517177581787,0.10629852861166,0.25313860177993774,-9.6119384765625,-0.25321662425994873,8
-0.091890007257461548,1.0883840322494507,0.32026460766792297,0.0039312555454671383,-1.7911888360977173,0.1427759975194931,-0.40339979529380798,-8.9644746780395508,-0.68868035078048706,8
0.091889902949333191,1.0883834362030029,0.3202647864818573,-0.003933886531740427,-1.7911911010742188,0.1427750438451767,0.40339875221252441,-8.9644393920898438,-0.68869554996490479,8
0.31683406233787537,1.1053675413131714,0.3168342113494873,0.10629590600728989,-1.7700482606887817,0.10629936307668686,-0.25318062305450439,-9.6119918823242188,-0.25312677025794983,8
0.53315615653991699,1.1226894855499268,0.30216518044471741,0.23866747319698334,-1.770247220993042,0.03521476686000824,-0.051894929260015488,-9.2582626342773438,0.21266524493694305,8
0.79071974754333496,1.161616325378418,0.30019623041152954,0.56794220209121704,-1.597649097442627,0.016565550118684769,-0.29952225089073181,-9.6632547378540039,0.17849625647068024,8
1.0126336812973022,1.177643895149231,0.30094146728515625,0.71376544237136841,-1.5158201456069946,0.015883736312389374,-0.43647047877311707,-9.9470539093017578,0.13284960389137268,8
-1.0088577270507812,1.1794190406799316,0.50625622272491455,-0.6749577522277832,-1.5001533031463623,0.067755363881587982,0.56713879108428955,-9.9282960891723633,0.25379842519760132,8
-0.79182106256484985,1.170073390007019,0.50989627838134766,-0.55779182910919189,-1.5524003505706787,0.095697849988937378,0.39477643370628357,-9.7707862854003906,0.18908141553401947,8
-0.51435279846191406,1.1416517496109009,0.51435273885726929,-0.14783217012882233,-1.7077511548995972,0.14783176779747009,-0.34542647004127502,-9.5402803421020508,0.34542244672775269,8
-0.30216524004936218,1.1226898431777954,0.5331571102142334,-0.035215076059103012,-1.7702488899230957,0.23867063224315643,-0.21266965568065643,-9.2582588195800781,-0.051913704723119736,8
-0.096441209316253662,1.1119173765182495,0.53331643342971802,0.0063856467604637146,-1.8115848302841187,0.25709119439125061,-0.1832008957862854,-9.0769672393798828,0.11411099880933762,8
0.096441388130187988,1.1119173765182495,0.53331571817398071,-0.0063858255743980408,-1.8115853071212769,0.25708916783332825,0.18318307399749756,-9.0769739151000977,0.11412888020277023,8
0.30216503143310547,1.1226903200149536,0.53315675258636475,0.035213697701692581,-1.7702511548995972,0.23866774141788483,0.2126772552728653,-9.2582197189331055,-0.051876600831747055,8
0.51435267925262451,1.1416518688201904,0.51435345411300659,0.14783099293708801,-1.7077502012252808,0.14783523976802826,0.34542155265808105,-9.5402841567993164,0.34539428353309631,8
0.79182112216949463,1.170073390007019,0.50989639759063721,0.55779224634170532,-1.5524005889892578,0.095698155462741852,-0.39477106928825378,-9.7707862854003906,0.18908186256885529,8
1.0088578462600708,1.1794190406799316,0.50625622272491455,0.67495983839035034,-1.5001535415649414,0.067755289375782013,-0.56713342666625977,-9.9282960891723633,0.25379866361618042,8
-0.98538082838058472,1.1809935569763184,0.72719347476959229,-0.51955705881118774,-1.4837647676467896,0.20893001556396484,0.48104342818260193,-9.8795051574707031,0.2483886331319809,8
-0.77298581600189209,1.1786316633224487,0.77298581600189209,-0.40355351567268372,-1.4974440336227417,0.40355271100997925,0.66303575038909912,-9.8152751922607422,-0.66303843259811401,8
-0.50989627838134766,1.170073390007019,0.79182130098342896,-0.095697835087776184,-1.5524004697799683,0.55779218673706055,-0.18908208608627319,-9.7707901000976562,-0.39477643370628357,8
-0.30019602179527283,1.161616325378418,0.79071927070617676,-0.016565293073654175,-1.5976510047912598,0.56793904304504395,-0.17850776016712189,-9.6632652282714844,-0.29951688647270203,8
-0.099155053496360779,1.1574312448501587,0.78829646110534668,0.0010776114650070667,-1.6234017610549927,0.55896323919296265,-0.062618330121040344,-9.6232929229736328,-0.23485957086086273,8
0.099154748022556305,1.1574316024780273,0.78829646110534668,-0.0010787725914269686,-1.623401403427124,0.55896341800689697,0.06262689083814621,-9.6233005523681641,-0.23485599458217621,8
0.30019599199295044,1.1616164445877075,0.79071927070617676,0.016564894467592239,-1.5976502895355225,0.56793898344039917,0.17850720882415771,-9.6632652282714844,-0.29951688647270203,8
0.50989627838134766,1.170073390007019,0.79182130098342896,0.095697715878486633,-1.5524003505706787,0.557792067527771,0.18908141553401947,-9.7707901000976562,-0.39477822184562683,8
0.77298575639724731,1.1786316633224487,0.77298581600189209,0.40355348587036133,-1.4974440336227417,0.40355286002159119,-0.66303485631942749,-9.8152751922607422,-0.66303664445877075,8
0.98538094758987427,1.1809935569763184,0.72719347476959229,0.51955777406692505,-1.4837647676467896,0.20893000066280365,-0.48104342818260193,-9.8795051574707031,0.2483886331319809,8
-0.93438643217086792,1.1815872192382812,0.93438625335693359,-0.29402852058410645,-1.4773082733154297,0.29402816295623779,-0.59235775470733643,-9.8613090515136719,0.59235596656799316,8
-0.72719341516494751,1.1809935569763184,0.98538088798522949,-0.20893031358718872,-1.4837647676467896,0.51955795288085938,-0.2483886331319809,-9.8795051574707031,-0.48104521632194519,8
-0.50625622272491455,1.1794190406799316,1.0088584423065186,-0.067755326628684998,-1.5001535415649414,0.6749616265296936,-0.25380021333694458,-9.9282960891723633,-0.56715667247772217,8
