x,y,z,vx,vy,vz,ax,ay,az,mass
-1.5761086940765381,-78.531585693359375,-1.5761063098907471,-0.18156081438064575,-39.219715118408203,-0.18156030774116516,-0.00035941597889177501,-9.8097600936889648,-0.00035941597889177501,8
-1.3028420209884644,-78.578811645507812,-1.610869288444519,-0.18104062974452972,-39.220138549804688,-0.18117605149745941,-0.001342892530374229,-9.8090734481811523,-0.0010697543621063232,8
-0.62958598136901855,-78.697525024414062,-1.7550044059753418,-0.010330071672797203,-39.255619049072266,-0.23226407170295715,0.0066099683754146099,-9.8094167709350586,-0.0016379355220124125,8
-0.36633393168449402,-78.695137023925781,-1.7947123050689697,-0.0069552678614854813,-39.255424499511719,-0.2328912615776062,0.0044546741992235184,-9.8097600936889648,-0.00086322420975193381,8
-0.11992276459932327,-78.689262390136719,-1.8159866333007812,-0.0023391889408230782,-39.255252838134766,-0.23339648544788361,0.0015268473653122783,-9.8101034164428711,-0.00028207895229570568,8
0.1202167347073555,-78.689285278320312,-1.8159773349761963,0.0024584557395428419,-39.255256652832031,-0.23339152336120605,-0.00152517796959728,-9.8101034164428711,-0.00028386709163896739,8
0.36667966842651367,-78.695205688476562,-1.7946799993515015,0.0070792445912957191,-39.255435943603516,-0.232876256108284,-0.0044562248513102531,-9.8097600936889648,-0.00086814159294590354,8
0.63003140687942505,-78.697654724121094,-1.7549352645874023,0.010460888966917992,-39.255638122558594,-0.23224085569381714,-0.0066163386218249798,-9.8094167709350586,-0.0016473232535645366,8
1.3029245138168335,-78.578987121582031,-1.6108837127685547,0.18105870485305786,-39.220199584960938,-0.18117493391036987,0.0013406573561951518,-9.8090734481811523,-0.0010675191879272461,8
1.5761767625808716,-78.531753540039062,-1.5761117935180664,0.18157735466957092,-39.219776153564453,-0.18155783414840698,0.00035941597889177501,-9.8097600936889648,-0.00035941597889177501,8
-1.6108702421188354,-78.578811645507812,-1.3028405904769897,-0.18117655813694,-39.220138549804688,-0.18104016780853271,-0.0010697543621063232,-9.8090734481811523,-0.001342892530374229,8
-1.3108475208282471,-78.668937683105469,-1.3108454942703247,-0.18005605041980743,-39.221138000488281,-0.18005560338497162,-0.002545416122302413,-9.8077001571655273,-0.002545416122302413,8
-0.58534938097000122,-78.896270751953125,-1.1733369827270508,-0.0065811052918434143,-39.301002502441406,-0.11678002774715424,0.0045020035468041897,-9.8104467391967773,0.00066071742912754416,8
-0.32804393768310547,-78.907608032226562,-1.1163885593414307,-0.0037015872076153755,-39.301223754882812,-0.11635274440050125,0.0026873077731579542,-9.8099889755249023,-0.00015489755605813116,8
-0.10545432567596436,-78.910171508789062,-1.0848915576934814,-0.00095514621352776885,-39.301296234130859,-0.11615093797445297,0.00088552181841805577,-9.8097600936889648,-0.00054448843002319336,8
0.10811519622802734,-78.910270690917969,-1.0849052667617798,0.0017404006794095039,-39.301300048828125,-0.11614947766065598,-0.00089781702263280749,-9.8097600936889648,-0.00054404139518737793,8
0.33044448494911194,-78.907821655273438,-1.1163984537124634,0.0044750547967851162,-39.301235198974609,-0.1163472905755043,-0.0026911494787782431,-9.8099889755249023,-0.00015579162572976202,8
0.587333083152771,-78.896568298339844,-1.1732853651046753,0.0073283705860376358,-39.301025390625,-0.11676688492298126,-0.0044882851652801037,-9.8104467391967773,0.00065289431950077415,8
1.310978889465332,-78.669151306152344,-1.3108596801757812,0.18007534742355347,-39.221195220947266,-0.18005537986755371,0.0025418398436158895,-9.8077001571655273,-0.0025427339132875204,8
1.6109548807144165,-78.579017639160156,-1.3028477430343628,0.18119378387928009,-39.220199584960938,-0.18103829026222229,0.001068413257598877,-9.8090734481811523,-0.0013419984607025981,8
-1.7549992799758911,-78.697517395019531,-0.62958168983459473,-0.23226216435432434,-39.255619049072266,-0.01032925583422184,-0.0016379355220124125,-9.8094167709350586,0.0066098286770284176,8
-1.1733393669128418,-78.896270751953125,-0.58534526824951172,-0.11678090691566467,-39.301002502441406,-0.0065802833996713161,0.00066094094654545188,-9.8104467391967773,0.0045020035468041897,8
-0.50376623868942261,-79.026725769042969,-0.50376051664352417,0.001282468787394464,-39.339988708496094,0.0012838039547204971,0.00141664978582412,-9.8131933212280273,0.0014166986802592874,8
-0.27619713544845581,-79.004325866699219,-0.49446597695350647,0.0019068401306867599,-39.340805053710938,0.0013298975536599755,0.00088533846428617835,-9.8138799667358398,0.0013378738658502698,8
-0.084017030894756317,-78.995292663574219,-0.49276325106620789,0.0027470013592392206,-39.342098236083984,0.0012914419639855623,0.00010769347863970324,-9.8153676986694336,0.0012499826261773705,8
0.10207323729991913,-78.997039794921875,-0.49283912777900696,0.0036216010339558125,-39.343673706054688,0.0012187696993350983,-0.00072242220630869269,-9.8169698715209961,0.001155256642960012,8
0.29447942972183228,-79.008827209472656,-0.49471566081047058,0.0044722352176904678,-39.344852447509766,0.0011455391068011522,-0.0014446488348767161,-9.8173131942749023,0.0011402111267670989,8
0.52178597450256348,-79.031585693359375,-0.50401926040649414,0.0051696076989173889,-39.344490051269531,0.0010886883828788996,-0.0019461101619526744,-9.8173131942749023,0.0011778039624914527,8
1.1739248037338257,-78.898887634277344,-0.58534067869186401,0.11679845303297043,-39.302040100097656,-0.0065779252909123898,-0.0006808339967392385,-9.8104467391967773,0.0045028417371213436,8
1.7546604871749878,-78.698486328125,-0.62951266765594482,0.2320503443479538,-39.255943298339844,-0.010314580984413624,0.0016213952330872416,-9.8094167709350586,0.0066012791357934475,8
-1.7947057485580444,-78.69512939453125,-0.36633133888244629,-0.23288902640342712,-39.255424499511719,-0.0069545870646834373,-0.00086277717491611838,-9.8097600936889648,0.004454590380191803,8
-1.1163902282714844,-78.907600402832031,-0.32804101705551147,-0.11635360866785049,-39.301223754882812,-0.0037007755599915981,-0.00015489755605813116,-9.8099889755249023,0.0026873357128351927,8
-0.49447134137153625,-79.004318237304688,-0.27619108557701111,0.0013287230394780636,-39.340805053710938,0.0019083714578300714,0.0013492977013811469,-9.8136510848999023,0.00089737697271630168,8
-0.27916732430458069,-79.013900756835938,-0.27916169166564941,0.0018883772427216172,-39.341835021972656,0.0018897631671279669,0.00084067689022049308,-9.8143377304077148,0.00084126362344250083,8
-0.081263147294521332,-79.015716552734375,-0.28232216835021973,0.0027104176115244627,-39.343578338623047,0.0018080408917739987,6.3241459429264069e-05,-9.8155965805053711,0.00076710473513230681,8
0.099533729255199432,-79.018516540527344,-0.28247407078742981,0.0034903285559266806,-39.345859527587891,0.0016968138515949249,-0.0005581438890658319,-9.8141088485717773,0.00083610526053234935,8
0.29811781644821167,-79.021232604980469,-0.27964669466018677,0.0043007377535104752,-39.347743988037109,0.0016048428369686007,-0.0011386115802451968,-9.8114767074584961,0.00097159174038097262,8
0.51415020227432251,-79.011505126953125,-0.27664175629615784,0.004972594790160656,-39.346897125244141,0.0016278022667393088,-0.0019280052511021495,-9.8167409896850586,0.00069659546716138721,8
1.1168742179870605,-78.910903930664062,-0.32800698280334473,0.11635687947273254,-39.302284240722656,-0.0036916853860020638,0.00016294418310280889,-9.8101034164428711,0.0026853310409933329,8
1.7944762706756592,-78.695945739746094,-0.36629810929298401,0.23268531262874603,-39.255729675292969,-0.0069452929310500622,0.00082343810936436057,-9.8097600936889648,0.0044492678716778755,8
-1.8159788846969604,-78.689254760742188,-0.11992115527391434,-0.23339377343654633,-39.255252838134766,-0.0023386487737298012,-0.00028163191745989025,-9.8101034164428711,0.0015268543502315879,8
-1.0848937034606934,-78.910171508789062,-0.10545192658901215,-0.11615177989006042,-39.301296234130859,-0.00095435942057520151,-0.00054448843002319336,-9.8097600936889648,0.00088564580073580146,8
-0.49276864528656006,-78.995269775390625,-0.084011733531951904,0.0012934808619320393,-39.342037200927734,0.0027518740389496088,0.0012734833871945739,-9.8150243759155273,0.00013244105502963066,8
-0.28232705593109131,-79.015724182128906,-0.081257745623588562,0.0018114808481186628,-39.343490600585938,0.0027168625965714455,0.00075506971916183829,-9.8158254623413086,5.2722167311003432e-05,8
-0.082503393292427063,-79.026756286621094,-0.082498572766780853,0.002617507241666317,-39.345687866210938,0.0026191403158009052,6.3269399106502533e-05,-9.8150243759155273,6.3870102167129517e-05,8
0.10050399601459503,-79.030624389648438,-0.082725949585437775,0.0033893727231770754,-39.347984313964844,0.0025055657606571913,-0.00053105643019080162,-9.8130788803100586,0.00015538650040980428,8
0.30150198936462402,-79.026168823242188,-0.081910468637943268,0.004205802921205759,-39.349758148193359,0.0024072527885437012,-0.0011209117947146297,-9.8104467391967773,0.00029861924122087657,8
0.51339417695999146,-79.005073547363281,-0.084598541259765625,0.0048550982028245926,-39.348934173583984,0.0024188831448554993,-0.0018738441867753863,-9.8152532577514648,7.4298579420428723e-05,8
1.085322380065918,-78.91400146484375,-0.10542630404233932,0.11614947021007538,-39.302364349365234,-0.00094455806538462639,0.00056438142200931907,-9.8097600936889648,0.00088381924433633685,8
1.8158044815063477,-78.69000244140625,-0.11991601437330246,0.23319494724273682,-39.255561828613281,-0.0023366520181298256,0.00022530554269906133,-9.8101034164428711,0.0015251011354848742,8
-1.8159689903259277,-78.689277648925781,0.12021753937005997,-0.23338854312896729,-39.255256652832031,0.002458885544911027,-0.00028297302196733654,-9.8101034164428711,-0.0015251360600814223,8
-1.0849068164825439,-78.910270690917969,0.10811732709407806,-0.11615032702684402,-39.301300048828125,0.0017411671578884125,-0.00054404139518737793,-9.8097600936889648,-0.00089777162065729499,8
-0.49284324049949646,-78.997032165527344,0.1020786240696907,0.0012264314573258162,-39.343505859375,0.0036322539672255516,0.0011092540808022022,-9.8176565170288086,-0.00076550518861040473,8
-0.28247588872909546,-79.018486022949219,0.099540404975414276,0.0017005499685183167,-39.345752716064453,0.0034974338486790657,0.00057803344679996371,-9.8185720443725586,-0.00081251369556412101,8
-0.082728542387485504,-79.030624389648438,0.10050905495882034,0.0025100959464907646,-39.347866058349609,0.0033973557874560356,4.6924684284022078e-05,-9.8149099349975586,-0.00063703855266794562,8
0.10029570758342743,-79.035392761230469,0.10029832273721695,0.0032912308815866709,-39.3499755859375,0.0032931549940258265,-0.00057585065951570868,-9.8134222030639648,-0.00057493563508614898,8
0.30135223269462585,-79.031005859375,0.099103532731533051,0.0041085518896579742,-39.351524353027344,0.0032098758965730667,-0.0013546830741688609,-9.8142232894897461,-0.00062794418772682548,8
0.51329284906387329,-79.008560180664062,0.10160653293132782,0.0047819246537983418,-39.350254058837891,0.0032932532485574484,-0.0019449925748631358,-9.8162832260131836,-0.00073599390452727675,8
1.0853474140167236,-78.914192199707031,0.10810210555791855,0.11614925414323807,-39.302371978759766,0.001747770351357758,0.00056326383491978049,-9.8097600936889648,-0.00089703471167013049,8
1.815786600112915,-78.690040588378906,0.12019920349121094,0.23318643867969513,-39.255569458007812,0.0024533260148018599,0.00022798775171395391,-9.8101034164428711,-0.0015232780715450644,8
-1.7946709394454956,-78.695205688476562,0.36668002605438232,-0.23287315666675568,-39.255435943603516,0.0070796064101159573,-0.00086814159294590354,-9.8097600936889648,-0.0044561410322785378,8
-1.1163996458053589,-78.907821655273438,0.33044624328613281,-0.11634816974401474,-39.301235198974609,0.0044758976437151432,-0.00015579162572976202,-9.8101034164428711,-0.0026912332978099585,8
-0.49471849203109741,-79.008766174316406,0.29448485374450684,0.0011536866659298539,-39.344673156738281,0.0044836504384875298,0.0010135222692042589,-9.8193731307983398,-0.0015676672337576747,8
-0.27964642643928528,-79.021141052246094,0.29812514781951904,0.0016039210604503751,-39.347702026367188,0.0043040099553763866,0.00046571248094551265,-9.8202886581420898,-0.001641511800698936,8
-0.081910945475101471,-79.026138305664062,0.30150753259658813,0.0024115771520882845,-39.349636077880859,0.0042141196317970753,5.1988750783493742e-05,-9.8146810531616211,-0.0013648810563609004,8
0.099103197455406189,-79.030998229980469,0.30135354399681091,0.0032129012979567051,-39.351432800292969,0.0041156853549182415,-0.00064052402740344405,-9.8143377304077148,-0.0013636237708851695,8
0.29782924056053162,-79.0330810546875,0.29782700538635254,0.0040403129532933235,-39.352588653564453,0.0040423213504254818,-0.001587001490406692,-9.8185720443725586,-0.0015834531513974071,8
0.51385617256164551,-79.020065307617188,0.29409137368202209,0.0047708256170153618,-39.350616455078125,0.0041707302443683147,-0.0020669354125857353,-9.8189153671264648,-0.0015734367771074176,8
1.1169099807739258,-78.911300659179688,0.33043187856674194,0.11635519564151764,-39.302303314208984,0.0044828997924923897,0.0001616030785953626,-9.8099889755249023,-0.0026895010378211737,8
1.7944182157516479,-78.696067810058594,0.36663550138473511,0.23266007006168365,-39.255748748779297,0.0070668947882950306,0.00083237880608066916,-9.8097600936889648,-0.0044507067650556564,8
-1.7549214363098145,-78.697647094726562,0.63003140687942505,-0.23223772644996643,-39.255638122558594,0.01046123169362545,-0.0016473232535645366,-9.8094167709350586,-0.0066162827424705029,8
-1.1732864379882812,-78.896560668945312,0.58733534812927246,-0.11676780134439468,-39.301021575927734,0.0073292357847094536,0.00065289431950077415,-9.8104467391967773,-0.0044883270747959614,8
-0.50402319431304932,-79.031570434570312,0.52179008722305298,0.0010936049511656165,-39.344379425048828,0.0051771854050457478,0.0012141395127400756,-9.8165121078491211,-0.0019063100917264819,8
-0.27664342522621155,-79.011451721191406,0.51415467262268066,0.0016360849840566516,-39.346714019775391,0.0049843061715364456,0.00057341292267665267,-9.8188009262084961,-0.0020470423623919487,8
-0.084598742425441742,-79.005020141601562,0.51339626312255859,0.0024267502594739199,-39.348766326904297,0.0048663611523807049,3.2291281968355179e-05,-9.8159399032592773,-0.0019121634541079402,8
0.10160837322473526,-79.008544921875,0.51329094171524048,0.0032953778281807899,-39.350189208984375,0.0047871926799416542,-0.00071464799111708999,-9.8158254623413086,-0.0019188969163224101,8
0.29409581422805786,-79.020057678222656,0.51385211944580078,0.0041697882115840912,-39.350616455078125,0.0047723902389407158,-0.0015657673357054591,-9.8186864852905273,-0.0020520994439721107,8
0.52142566442489624,-79.040748596191406,0.5214192271232605,0.0049178381450474262,-39.349285125732422,0.0049184085801243782,-0.0019658217206597328,-9.8171987533569336,-0.0019625667482614517,8
1.1739077568054199,-78.899375915527344,0.58735018968582153,0.11679154634475708,-39.302082061767578,0.0073422282002866268,-0.00067681068321689963,-9.8104467391967773,-0.0044886344112455845,8
1.7545459270477295,-78.698661804199219,0.62994992733001709,0.23201251029968262,-39.255973815917969,0.010443064384162426,0.0016365944175049663,-9.8094167709350586,-0.0066075376234948635,8
-1.6108763217926025,-78.578987121582031,1.3029160499572754,-0.18117350339889526,-39.220199584960938,0.1810566633939743,-0.0010675191879272461,-9.8090734481811523,0.0013406573561951518,8
-1.3108539581298828,-78.669151306152344,1.310969352722168,-0.18005393445491791,-39.221195220947266,0.1800733208656311,-0.0025427339132875204,-9.8077001571655273,0.0025427339132875204,8
-0.58534282445907593,-78.898880004882812,1.1739188432693481,-0.0065785557962954044,-39.302040100097656,0.11679734289646149,0.0045028976164758205,-9.8104467391967773,-0.00068105751415714622,8
-0.32800880074501038,-78.910903930664062,1.116870641708374,-0.0036922686267644167,-39.302284240722656,0.11635567247867584,0.0026853450108319521,-9.8101034164428711,0.00016294418310280889,8
-0.10542838275432587,-78.91400146484375,1.0853186845779419,-0.00094511685892939568,-39.302364349365234,0.11614818871021271,0.00088382972171530128,-9.8097600936889648,0.00056460493942722678,8
0.1081002950668335,-78.914199829101562,1.0853443145751953,0.0017472166800871491,-39.302375793457031,0.11614789813756943,-0.00089704868150874972,-9.8097600936889648,0.00056326383491978049,8
0.33043015003204346,-78.911300659179688,1.1169068813323975,0.0044823400676250458,-39.30230712890625,0.11635377258062363,-0.0026895289774984121,-9.8101034164428711,0.0001616030785953626,8
0.5873485803604126,-78.899375915527344,1.1739046573638916,0.0073417131789028645,-39.302085876464844,0.11679006367921829,-0.0044887042604386806,-9.8104467391967773,-0.00067681068321689963,8
1.310991644859314,-78.669448852539062,1.3109928369522095,0.18007314205169678,-39.221263885498047,0.18007342517375946,0.0025378165300935507,-9.8077001571655273,0.0025378165300935507,8
1.6109620332717896,-78.579231262207031,1.3029284477233887,0.18119025230407715,-39.220272064208984,0.18105471134185791,0.0010639429092407227,-9.8090734481811523,0.0013375281123444438,8
-1.5761064291000366,-78.531745910644531,1.5761692523956299,-0.18155649304389954,-39.219776153564453,0.18157538771629333,-0.00035941597889177501,-9.8097600936889648,0.00035941597889177501,8
-1.3028435707092285,-78.579017639160156,1.6109457015991211,-0.18103685975074768,-39.220199584960938,0.18119174242019653,-0.0013415514258667827,-9.8090734481811523,0.0010679662227630615,8
-0.62951380014419556,-78.698471069335938,1.7546573877334595,-0.010314781218767166,-39.255935668945312,0.2320500910282135,0.006601307075470686,-9.8094167709350586,0.0016209481982514262,8
-0.36629900336265564,-78.695945739746094,1.7944725751876831,-0.0069454866461455822,-39.255725860595703,0.23268486559391022,0.004449295811355114,-9.8097600936889648,0.00082343810936436057,8
-0.11991675943136215,-78.69000244140625,1.8158029317855835,-0.0023368129041045904,-39.255561828613281,0.23319472372531891,0.0015251081204041839,-9.8101034164428711,0.00022530554269906133,8
0.12019874155521393,-78.690040588378906,1.8157877922058105,0.0024531933013349771,-39.255569458007812,0.23318669199943542,-0.0015232710866257548,-9.8101034164428711,0.00022754071687813848,8
0.36663511395454407,-78.696060180664062,1.7944223880767822,0.0070667634718120098,-39.255748748779297,0.23266105353832245,-0.0044507347047328949,-9.8097600936889648,0.00083148473640903831,8
0.62994992733001709,-78.698654174804688,1.7545541524887085,0.010442959144711494,-39.255973815917969,0.232014000415802,-0.0066075935028493404,-9.8094167709350586,0.0016357003478333354,8
1.3029273748397827,-78.579231262207031,1.6109644174575806,0.18105442821979523,-39.220272064208984,0.18119052052497864,0.0013375281123444438,-9.8090734481811523,0.0010643899440765381,8
1.5761786699295044,-78.531929016113281,1.5761795043945312,0.18157239258289337,-39.2198486328125,0.18157266080379486,0.00035807487438432872,-9.8097600936889648,0.00035807487438432872,8
-1.6715408563613892,-78.251579284667969,-1.6715372800827026,-0.18415640294551849,-39.217205047607422,-0.18415586650371552,0.0043246150016784668,-9.8142232894897461,0.0043246150016784668,8
-1.3657351732254028,-78.305244445800781,-1.7421931028366089,-0.18266631662845612,-39.218467712402344,-0.18302160501480103,0.00081360334297642112,-9.8111333847045898,0.001494884374551475,8
-0.63719737529754639,-78.397758483886719,-2.0122272968292236,-0.010232171975076199,-39.246734619140625,-0.25479644536972046,0.0064016501419246197,-9.8104467391967773,0.00085383647819980979,8
-0.37019446492195129,-78.401626586914062,-2.0422141551971436,-0.0068665891885757446,-39.246868133544922,-0.25454989075660706,0.0042974716052412987,-9.8104467391967773,0.00094324344536289573,8
-0.1214795783162117,-78.400978088378906,-2.0555357933044434,-0.0023476751521229744,-39.246978759765625,-0.25432682037353516,0.0014844558900222182,-9.8104467391967773,0.00099420547485351562,8
0.12163687497377396,-78.400985717773438,-2.0555427074432373,0.0024214820004999638,-39.246978759765625,-0.25432917475700378,-0.001481675892136991,-9.8104467391967773,0.00099420547485351562,8
0.3703608512878418,-78.401641845703125,-2.0422320365905762,0.0069405478425323963,-39.246864318847656,-0.25455677509307861,-0.0042953342199325562,-9.8104467391967773,0.00094324344536289573,8
0.63737756013870239,-78.397796630859375,-2.0122549533843994,0.010306336916983128,-39.246730804443359,-0.25480666756629944,-0.0064003090374171734,-9.8104467391967773,0.00085473054787144065,8
1.3657982349395752,-78.305366516113281,-1.7422086000442505,0.18268364667892456,-39.218528747558594,-0.18302035331726074,-0.00081449741264805198,-9.8111333847045898,0.0014966725138947368,8
1.6715790033340454,-78.251678466796875,-1.6715282201766968,0.18416948616504669,-39.217266082763672,-0.18415053188800812,-0.0043138861656188965,-9.8142232894897461,0.0043143332004547119,8
-1.7421929836273193,-78.305252075195312,-1.3657323122024536,-0.18302184343338013,-39.218467712402344,-0.18266561627388,0.0014944373397156596,-9.8111333847045898,0.00081360334297642112,8
-1.4094698429107666,-78.396499633789062,-1.4094654321670532,-0.18100543320178986,-39.220233917236328,-0.18100494146347046,-0.0013151763705536723,-9.8087301254272461,-0.0013151763705536723,8
-0.57317900657653809,-78.654884338378906,-1.2366589307785034,-0.0067747044377028942,-39.300979614257812,-0.1168186292052269,0.0046260138042271137,-9.8104467391967773,0.00073894852539524436,8
-0.31835904717445374,-78.675300598144531,-1.1346544027328491,-0.0036670684348791838,-39.301227569580078,-0.11635149270296097,0.0026699781883507967,-9.8101034164428711,-0.00015445052122231573,8
-0.10348142683506012,-78.682342529296875,-1.0906786918640137,-0.00096234504599124193,-39.301296234130859,-0.11615403741598129,0.00089061557082459331,-9.8097600936889648,-0.00053711235523223877,8
0.1060447096824646,-78.682441711425781,-1.090681791305542,0.0017439418006688356,-39.301300048828125,-0.11615247279405594,-0.00090060749789699912,-9.8097600936889648,-0.00053666532039642334,8
0.32065975666046143,-78.675491333007812,-1.1346454620361328,0.0044388659298419952,-39.301235198974609,-0.11634597927331924,-0.0026729188393801451,-9.8099889755249023,-0.0001555681083118543,8
0.57501876354217529,-78.655097961425781,-1.2366019487380981,0.0075196949765086174,-39.301006317138672,-0.11680489778518677,-0.0046106609515845776,-9.8104467391967773,0.0007304548635147512,8
1.4095547199249268,-78.396644592285156,-1.4094808101654053,0.18102359771728516,-39.220294952392578,-0.18100394308567047,0.0013124941615387797,-9.8087301254272461,-0.0013129411963745952,8
1.7422624826431274,-78.305389404296875,-1.365739107131958,0.18303848803043365,-39.218528747558594,-0.18266330659389496,-0.0014953314093872905,-9.8111333847045898,0.00081360334297642112,8
-2.0122230052947998,-78.397758483886719,-0.63719165325164795,-0.25479480624198914,-39.246730804443359,-0.010231401771306992,0.00085294240852817893,-9.8104467391967773,0.0064015383832156658,8
-1.2366634607315063,-78.654884338378906,-0.57317453622817993,-0.11681951582431793,-39.300979614257812,-0.0067738518118858337,0.00073894852539524436,-9.8104467391967773,0.0046260138042271137,8
-0.43577626347541809,-78.773590087890625,-0.43576827645301819,0.0014856340130791068,-39.340167999267578,0.0014870029408484697,0.0012763960985466838,-9.8142232894897461,0.0012765253195539117,8
-0.24607913196086884,-78.759315490722656,-0.44950634241104126,0.0020379505585879087,-39.340736389160156,0.0013789605582132936,0.00077682075789198279,-9.8152532577514648,0.0013253219658508897,8
-0.074037857353687286,-78.759895324707031,-0.4482211172580719,0.0027872165665030479,-39.34210205078125,0.0012854267843067646,1.2286472156119999e-05,-9.8168554306030273,0.0012699944199994206,8
0.094762645661830902,-78.762237548828125,-0.44834306836128235,0.0035238026175647974,-39.344184875488281,0.0011854760814458132,-0.00065838446607813239,-9.8161687850952148,0.0012887698831036687,8
0.2677980363368988,-78.765144348144531,-0.44998958706855774,0.0042623868212103844,-39.346103668212891,0.0011178990826010704,-0.0012494901893660426,-9.8144521713256836,0.0013344617327675223,8
0.45790773630142212,-78.780006408691406,-0.43626305460929871,0.0048638731241226196,-39.346343994140625,0.0011934745125472546,-0.001901741954497993,-9.8174276351928711,0.0010583095718175173,8
1.2373806238174438,-78.657333374023438,-0.57322782278060913,0.11683952808380127,-39.302021026611328,-0.0067777181975543499,-0.00076398247620090842,-9.8104467391967773,0.0046308892779052258,8
2.0125010013580322,-78.398078918457031,-0.63717138767242432,0.25493514537811279,-39.246833801269531,-0.01022343710064888,-0.00082790845772251487,-9.8104467391967773,0.0063977665267884731,8
-2.0422074794769287,-78.401618957519531,-0.37019214034080505,-0.25454849004745483,-39.246864318847656,-0.0068660387769341469,0.00094324344536289573,-9.8104467391967773,0.0042974576354026794,8
-1.1346572637557983,-78.67529296875,-0.31835591793060303,-0.11635235697031021,-39.301223754882812,-0.003666287986561656,-0.00015445052122231573,-9.8099889755249023,0.0026700200978666544,8
-0.44951394200325012,-78.759307861328125,-0.2460734099149704,0.0013786843046545982,-39.340717315673828,0.0020404572132974863,0.0013412859989330173,-9.8149099349975586,0.00079356360947713256,8
-0.25628763437271118,-78.794677734375,-0.25628146529197693,0.0019360721344128251,-39.341957092285156,0.0019375245319679379,0.00078568462049588561,-9.8149099349975586,0.00078635168028995395,8
-0.07650475949048996,-78.80096435546875,-0.26598140597343445,0.0026994363870471716,-39.343761444091797,0.001785935484804213,5.5781561968615279e-05,-9.8155965805053711,0.00078870909055694938,8
0.096146784722805023,-78.805503845214844,-0.26621881127357483,0.0033986533526331186,-39.346820831298828,0.001626045792363584,-0.00027596019208431244,-9.8090734481811523,0.0011377733899280429,8
0.27752065658569336,-78.812385559082031,-0.25754931569099426,0.0039416113868355751,-39.352909088134766,0.0013575924094766378,0.0028574045281857252,-9.7404088973999023,0.0049242069944739342,8
0.47495636343955994,-78.768020629882812,-0.246834397315979,0.0048480466939508915,-39.348644256591797,0.0016458672471344471,-0.0017624067841097713,-9.8121633529663086,0.00091047020396217704,8
1.1351984739303589,-78.678535461425781,-0.31836739182472229,0.11635665595531464,-39.302284240722656,-0.0036649401299655437,0.00016026197408791631,-9.8101034164428711,0.0026727581862360239,8
2.0424697399139404,-78.401931762695312,-0.37018224596977234,0.25468486547470093,-39.246971130371094,-0.0068612475879490376,-0.00090569251915439963,-9.8104467391967773,0.0042950967326760292,8
-2.0555319786071777,-78.400962829589844,-0.12147797644138336,-0.25432565808296204,-39.246974945068359,-0.0023472127504646778,0.00099420547485351562,-9.8104467391967773,0.0014844489051029086,8
-1.0906809568405151,-78.682342529296875,-0.10347887873649597,-0.11615488678216934,-39.301296234130859,-0.0009615457383915782,-0.00053711235523223877,-9.8098745346069336,0.00089055619901046157,8
-0.44822844862937927,-78.759902954101562,-0.074031859636306763,0.0012909239158034325,-39.341976165771484,0.0027956687845289707,0.001260599703527987,-9.8169698715209961,5.1548699957493227e-06,8
-0.26598596572875977,-78.800918579101562,-0.076498143374919891,0.0017904043197631836,-39.343654632568359,0.0027071372605860233,0.00072028482099995017,-9.8167409896850586,-9.9255694294697605e-06,8
-0.077639341354370117,-78.8172607421875,-0.077633962035179138,0.0025791837833821774,-39.345962524414062,0.0025809609796851873,6.7900400608778e-05,-9.8151388168334961,6.9304369390010834e-05,8
0.096151582896709442,-78.8232421875,-0.077963180840015411,0.0033082300797104836,-39.348888397216797,0.0024278059136122465,-0.00028163890237919986,-9.8085012435913086,0.00041507181595079601,8
0.28727889060974121,-78.823097229003906,-0.078005075454711914,0.004095402080565691,-39.351566314697266,0.0022920051123946905,-0.00041898337076418102,-9.7968282699584961,0.0010367785580456257,8
0.4753747284412384,-78.771263122558594,-0.074963852763175964,0.004808629397302866,-39.350162506103516,0.0023752723354846239,-0.0017983372090384364,-9.8111333847045898,0.00028075880254618824,8
1.0911102294921875,-78.686180114746094,-0.10346797853708267,0.11615322530269623,-39.302364349365234,-0.00095598777988925576,0.00055544078350067139,-9.8097600936889648,0.0008913961355574429,8
2.0557794570922852,-78.4012451171875,-0.1214778795838356,0.2544596791267395,-39.247089385986328,-0.0023466914426535368,-0.00094771379372105002,-9.8104467391967773,0.0014835897600278258,8
-2.0555362701416016,-78.400970458984375,0.1216375008225441,-0.25432801246643066,-39.246974945068359,0.0024218328762799501,0.00099420547485351562,-9.8104467391967773,-0.0014816339826211333,8
-1.0906829833984375,-78.68243408203125,0.10604690760374069,-0.11615332216024399,-39.301296234130859,0.001744750770740211,-0.00053688883781433105,-9.8097600936889648,-0.00090060400543734431,8
-0.44834858179092407,-78.762176513671875,0.094770722091197968,0.0011917161755263805,-39.344028472900391,0.0035337978042662144,0.00099947559647262096,-9.8212041854858398,-0.00094363460084423423,8
-0.26621982455253601,-78.805435180664062,0.096156783401966095,0.0016187200089916587,-39.346889495849609,0.0033957341220229864,0.00053314492106437683,-9.8196020126342773,-0.00087729183724150062,8
-0.077965192496776581,-78.823188781738281,0.096158646047115326,0.0024262757506221533,-39.348865509033203,0.0033111290540546179,0.00010678543912945315,-9.8139944076538086,-0.00058782979613170028,8
0.095703989267349243,-78.830421447753906,0.095708377659320831,0.0031898259185254574,-39.35113525390625,0.0031922252383083105,-0.00040225448901765049,-9.8101034164428711,-0.00040144423837773502,8
0.28695705533027649,-78.832801818847656,0.095229014754295349,0.0039986651390790939,-39.353282928466797,0.003064099233597517,-0.0010566785931587219,-9.8081579208374023,-0.00029090789030306041,8
0.47535720467567444,-78.775543212890625,0.094145365059375763,0.0047378046438097954,-39.351413726806641,0.0031488528475165367,-0.0020226230844855309,-9.8153676986694336,-0.00065616326173767447,8
1.0911195278167725,-78.686332702636719,0.10604108870029449,0.11615286767482758,-39.302371978759766,0.0017534882063046098,0.00055477023124694824,-9.8097600936889648,-0.00090101611567661166,8
2.0557899475097656,-78.401252746582031,0.12162943184375763,0.25446391105651855,-39.247089385986328,0.0024180188775062561,-0.00094860786339268088,-9.8104467391967773,-0.0014809983549639583,8
-2.0422232151031494,-78.401634216308594,0.37036103010177612,-0.25455546379089355,-39.246860504150391,0.0069408402778208256,0.00094324344536289573,-9.8104467391967773,-0.0042952923104166985,8
-1.1346462965011597,-78.67547607421875,0.32066157460212708,-0.11634685844182968,-39.301235198974609,0.0044397246092557907,-0.0001555681083118543,-9.8099889755249023,-0.0026728908997029066,8
-0.44999167323112488,-78.765029907226562,0.26780688762664795,0.0011200415901839733,-39.346004486083984,0.0042687780223786831,0.00073967844946309924,-9.8247518539428711,-0.001838025520555675,8
-0.25753811001777649,-78.811958312988281,0.27754610776901245,0.0010141577804461122,-39.358741760253906,0.0036076458636671305,0.0097602261230349541,-9.6574392318725586,0.0076304022222757339,8
-0.077998913824558258,-78.8228759765625,0.28729471564292908,0.0022843871265649796,-39.351627349853516,0.0040933554992079735,0.00043432923848740757,-9.8074712753295898,-0.0010229693725705147,8
0.095227569341659546,-78.832763671875,0.28696325421333313,0.0030676722526550293,-39.353168487548828,0.0040075848810374737,-0.00035975125501863658,-9.8091878890991211,-0.0011241947067901492,8
0.27694499492645264,-78.843132019042969,0.27694559097290039,0.0032927419524639845,-39.364433288574219,0.0032980842515826225,0.0088595319539308548,-9.6360387802124023,0.0088137108832597733,8
0.47482261061668396,-78.7786865234375,0.2674756646156311,0.0046487413346767426,-39.352291107177734,0.0039377491921186447,-0.0022427455987781286,-9.8205175399780273,-0.0016258935211226344,8
1.135211706161499,-78.678878784179688,0.32069104909896851,0.116354800760746,-39.302303314208984,0.0044533307664096355,0.00015892086958047003,-9.8099889755249023,-0.0026754194404929876,8
2.0424985885620117,-78.401947021484375,0.37034377455711365,0.25469711422920227,-39.246971130371094,0.0069327051751315594,-0.00090658658882603049,-9.8104467391967773,-0.0042930850759148598,8
-2.012244701385498,-78.397789001464844,0.63737720251083374,-0.25480520725250244,-39.246726989746094,0.010306579060852528,0.00085383647819980979,-9.8104467391967773,-0.0064002531580626965,8
-1.2366030216217041,-78.65509033203125,0.57502120733261108,-0.11680580675601959,-39.301002502441406,0.0075205513276159763,0.0007304548635147512,-9.8104467391967773,-0.004610744770616293,8
-0.43626761436462402,-78.779937744140625,0.45791521668434143,0.0012041961308568716,-39.346107482910156,0.0048782150261104107,0.00070934294490143657,-9.8234930038452148,-0.0022456932347267866,8
-0.24683423340320587,-78.76788330078125,0.47496482729911804,0.0016482429346069694,-39.348533630371094,0.0048548211343586445,0.00033739252830855548,-9.8220052719116211,-0.0023286181967705488,8
-0.074962370097637177,-78.771224975585938,0.47538113594055176,0.0023814388550817966,-39.350002288818359,0.0048190401867032051,6.202607892191736e-06,-9.8159399032592773,-0.0020691985264420509,8
0.094149209558963776,-78.775527954101562,0.47535687685012817,0.0031538757029920816,-39.351291656494141,0.0047468352131545544,-0.00066589325433596969,-9.8153676986694336,-0.002027624286711216,8
0.26748573780059814,-78.7786865234375,0.47481468319892883,0.0039371149614453316,-39.352272033691406,0.0046517904847860336,-0.0016142007661983371,-9.8202886581420898,-0.0022232439368963242,8
0.45765489339828491,-78.791633605957031,0.45764189958572388,0.0046008983626961708,-39.351314544677734,0.004602216649800539,-0.0021463679149746895,-9.8215475082397461,-0.0021420232951641083,8
1.2373658418655396,-78.657760620117188,0.57509386539459229,0.11683217436075211,-39.30206298828125,0.0075394944287836552,-0.00075973564526066184,-9.8104467391967773,-0.0046154106967151165,8
2.0125432014465332,-78.398109436035156,0.63734817504882812,0.25495293736457825,-39.246833801269531,0.010295075364410877,-0.00082969659706577659,-9.8104467391967773,-0.0063964813016355038,8
-1.7421983480453491,-78.305366516113281,1.3657914400100708,-0.18301863968372345,-39.218528747558594,0.18268135190010071,0.0014962254790589213,-9.8111333847045898,-0.00081449741264805198,8
-1.4094748497009277,-78.396636962890625,1.4095466136932373,-0.18100257217884064,-39.220294952392578,0.18102164566516876,-0.0013124941615387797,-9.8087301254272461,0.0013120471267029643,8
-0.57323175668716431,-78.657333374023438,1.2373760938644409,-0.0067783882841467857,-39.302021026611328,0.11683842539787292,0.0046309591270983219,-9.8104467391967773,-0.00076398247620090842,8
-0.31836915016174316,-78.678535461425781,1.1351933479309082,-0.0036655268631875515,-39.302284240722656,0.11635545641183853,0.0026727651711553335,-9.8101034164428711,0.00016026197408791631,8
-0.1034701019525528,-78.686180114746094,1.0911053419113159,-0.00095657911151647568,-39.302364349365234,0.11615194380283356,0.0008913943893276155,-9.8097600936889648,0.00055544078350067139,8
0.10603898018598557,-78.686332702636719,1.0911158323287964,0.0017529240576550364,-39.302371978759766,0.11615151166915894,-0.00090103008551523089,-9.8097600936889648,0.00055477023124694824,8
0.32068917155265808,-78.678878784179688,1.1352061033248901,0.0044527840800583363,-39.30230712890625,0.11635337769985199,-0.0026754473801702261,-9.8099889755249023,0.00015892086958047003,8
0.57509243488311768,-78.657760620117188,1.2373613119125366,0.0075389845296740532,-39.302066802978516,0.11683069914579391,-0.0046154526062309742,-9.8104467391967773,-0.00075973564526066184,8
1.4095667600631714,-78.3968505859375,1.4095685482025146,0.18102049827575684,-39.220363616943359,0.18102079629898071,0.0013080238131806254,-9.8087301254272461,0.0013080238131806254,8
1.7422642707824707,-78.305572509765625,1.365797758102417,0.18303118646144867,-39.218601226806641,0.18267552554607391,-0.0014966725138947368,-9.8111333847045898,-0.00081494444748386741,8
-1.6715209484100342,-78.251678466796875,1.6715677976608276,-0.18414859473705292,-39.217266082763672,0.18416683375835419,0.0043143332004547119,-9.8142232894897461,-0.0043129920959472656,8
-1.3657333850860596,-78.305381774902344,1.742253303527832,-0.18266177177429199,-39.218528747558594,0.18303623795509338,0.00081360334297642112,-9.8111333847045898,-0.0014953314093872905,8
-0.63717246055603027,-78.3980712890625,2.0124990940093994,-0.010223663412034512,-39.246829986572266,0.25493595004081726,0.0063978224061429501,-9.8104467391967773,-0.00082701438805088401,8
-0.37018308043479919,-78.40191650390625,2.0424706935882568,-0.0068614417687058449,-39.246967315673828,0.25468617677688599,0.0042950967326760292,-9.8104467391967773,-0.00090569251915439963,8
-0.12147844582796097,-78.401237487792969,2.0557825565338135,-0.002346858149394393,-39.247085571289062,0.2544611394405365,0.0014835967449471354,-9.8104467391967773,-0.00094771379372105002,8
0.12162894010543823,-78.4012451171875,2.0557928085327148,0.0024178619496524334,-39.247085571289062,0.25446531176567078,-0.0014810053398832679,-9.8104467391967773,-0.00094771379372105002,8
0.37034335732460022,-78.401947021484375,2.0425059795379639,0.0069325524382293224,-39.246967315673828,0.25469815731048584,-0.0042930850759148598,-9.8104467391967773,-0.00090658658882603049,8
0.63734793663024902,-78.398109436035156,2.0125496387481689,0.010294964537024498,-39.246829986572266,0.25495380163192749,-0.0063965371809899807,-9.8104467391967773,-0.00082969659706577659,8
1.3657950162887573,-78.305572509765625,1.7422657012939453,0.18267516791820526,-39.218601226806641,0.18303132057189941,-0.00081494444748386741,-9.8111333847045898,-0.0014966725138947368,8
1.6715465784072876,-78.251884460449219,1.6715468168258667,0.18415355682373047,-39.21734619140625,0.18415375053882599,-0.004294663667678833,-9.8142232894897461,-0.004294663667678833,8
-1.9212541580200195,-77.799751281738281,-1.9212437868118286,-0.2749691903591156,-39.1241455078125,-0.27496406435966492,-0.006584822665899992,-9.7998037338256836,-0.0065839285962283611,8
-1.5918425321578979,-77.793586730957031,-2.1234500408172607,-0.24961636960506439,-39.118244171142578,-0.31356364488601685,0.001708119991235435,-9.8008337020874023,-0.013503133319318295,8
-0.65073448419570923,-77.816085815429688,-2.7644996643066406,-0.015174245461821556,-39.127212524414062,-0.49945574998855591,0.0055813970975577831,-9.8026647567749023,-0.0081297755241394043,8
-0.38021895289421082,-77.818687438964844,-2.8017637729644775,-0.010018829256296158,-39.127620697021484,-0.49930870532989502,0.0036964749451726675,-9.8025503158569336,-0.0079652667045593262,8
-0.12533381581306458,-77.819992065429688,-2.8175017833709717,-0.0034535846207290888,-39.127830505371094,-0.49927791953086853,0.0012800422264263034,-9.8025503158569336,-0.0078275799751281738,8
0.1253429502248764,-77.819992065429688,-2.8175034523010254,0.0034579974599182606,-39.127830505371094,-0.49927809834480286,-0.0012794275535270572,-9.8025503158569336,-0.0078275799751281738,8
0.38022774457931519,-77.818687438964844,-2.8017673492431641,0.010023224167525768,-39.127620697021484,-0.499309241771698,-0.0036958882119506598,-9.8025503158569336,-0.0079652667045593262,8
0.65074312686920166,-77.816085815429688,-2.7645080089569092,0.015178649686276913,-39.127212524414062,-0.49945655465126038,-0.0055808103643357754,-9.8026647567749023,-0.0081297755241394043,8
1.5918577909469604,-77.793594360351562,-2.123466968536377,0.24962060153484344,-39.118247985839844,-0.31356945633888245,-0.0017094610957428813,-9.8008337020874023,-0.013503133319318295,8
1.9212846755981445,-77.799758911132812,-1.9212663173675537,0.27498376369476318,-39.124141693115234,-0.27497586607933044,0.0065821404568850994,-9.7998037338256836,-0.0065821404568850994,8
-2.1234455108642578,-77.793594360351562,-1.5918427705764771,-0.31355953216552734,-39.118251800537109,-0.24961860477924347,-0.013503133319318295,-9.8008337020874023,0.0017072259215638041,8
-1.7258197069168091,-77.825149536132812,-1.7258085012435913,-0.27305915951728821,-39.126678466796875,-0.27305448055267334,-0.009113251231610775,-9.7974004745483398,-0.0091123571619391441,8
-0.50994789600372314,-77.991157531738281,-1.5508638620376587,-0.0023819976486265659,-39.195953369140625,-0.23772066831588745,0.0016790836816653609,-9.8098745346069336,-0.0018601118354126811,8
-0.29255232214927673,-78.006507873535156,-1.4729447364807129,-0.0014581241412088275,-39.196163177490234,-0.2371114194393158,0.001067830016836524,-9.8096456527709961,-0.0025767085608094931,8
-0.096235960721969604,-78.015403747558594,-1.4373526573181152,-0.00039445800939574838,-39.196266174316406,-0.23677277565002441,0.00036298003396950662,-9.8094167709350586,-0.0029879806097596884,8
0.097187519073486328,-78.015403747558594,-1.4373172521591187,0.00070567475631833076,-39.196266174316406,-0.23677007853984833,-0.00036500566056929529,-9.8094167709350586,-0.0029897687491029501,8
0.29343172907829285,-78.006523132324219,-1.4728480577468872,0.0017665711930021644,-39.196163177490234,-0.23710297048091888,-0.0010667229071259499,-9.8096456527709961,-0.0025820729788392782,8
0.51072382926940918,-77.991195678710938,-1.5507357120513916,0.0026866751722991467,-39.195960998535156,-0.23770660161972046,-0.0016735655954107642,-9.8098745346069336,-0.0018694995669648051,8
1.725867748260498,-77.825149536132812,-1.7258433103561401,0.27307763695716858,-39.126667022705078,-0.27307000756263733,0.0091016283258795738,-9.7974004745483398,-0.0091016283258795738,8
2.1234714984893799,-77.793594360351562,-1.5918538570404053,0.31356748938560486,-39.118247985839844,-0.24962124228477478,0.013502239249646664,-9.8008337020874023,0.0017085670260712504,8
-2.7644863128662109,-77.816085815429688,-0.65073192119598389,-0.49945208430290222,-39.127212524414062,-0.015173804946243763,-0.0081297755241394043,-9.8026647567749023,0.0055813970975577831,8
-1.5508701801300049,-77.991157531738281,-0.50994294881820679,-0.23772159218788147,-39.195953369140625,-0.0023813059087842703,-0.0018601118354126811,-9.8098745346069336,0.0016790697118267417,8
-0.38417261838912964,-78.393447875976562,-0.38416019082069397,-0.0011317904572933912,-39.304512023925781,-0.0011310168774798512,0.002571050776168704,-9.8080434799194336,0.0025699262041598558,8
-0.21742142736911774,-78.405685424804688,-0.37062624096870422,0.00063662411412224174,-39.304710388183594,-0.0019434074638411403,0.0017963534919545054,-9.8080434799194336,0.0028596362099051476,8
-0.056119769811630249,-78.398712158203125,-0.37582248449325562,0.003655310021713376,-39.304618835449219,-0.0029997308738529682,0.00054615084081888199,-9.8080434799194336,0.0032920201774686575,8
0.094421260058879852,-78.398040771484375,-0.37613695859909058,0.006306392140686512,-39.304576873779297,-0.0030568595975637436,-0.00054738018661737442,-9.8080434799194336,0.0033249121624976397,8
0.26069658994674683,-78.404045104980469,-0.37113499641418457,0.0095463786274194717,-39.304622650146484,-0.0020517278462648392,-0.0018757859943434596,-9.8079290390014648,0.0029242571908980608,8
0.43139657378196716,-78.392127990722656,-0.38408216834068298,0.011588697321712971,-39.304439544677734,-0.0010849159443750978,-0.0027650778647512197,-9.8080434799194336,0.0025765723548829556,8
1.5508849620819092,-77.992919921875,-0.50989007949829102,0.23760147392749786,-39.196605682373047,-0.0023721056059002876,0.0018180905608460307,-9.8098745346069336,0.0016800266457721591,8
2.7645323276519775,-77.81610107421875,-0.65073305368423462,0.49946579337120056,-39.127216339111328,-0.015174214728176594,0.0081297755241394043,-9.8026647567749023,0.0055814529769122601,8
-2.8017456531524658,-77.818687438964844,-0.38021737337112427,-0.49930498003959656,-39.127620697021484,-0.010018534958362579,-0.007966160774230957,-9.8025503158569336,0.0036965587642043829,8
-1.4729506969451904,-78.006515502929688,-0.29255035519599915,-0.23711225390434265,-39.196163177490234,-0.0014574576634913683,-0.0025767085608094931,-9.8096456527709961,0.0010678439866751432,8
-0.37064343690872192,-78.405685424804688,-0.21741122007369995,-0.0019440267933532596,-39.304710388183594,0.00063713704003021121,0.0028608446009457111,-9.8080434799194336,0.0017955100629478693,8
0.43576911091804504,-78.404731750488281,-0.21761636435985565,0.012568238191306591,-39.304706573486328,0.00075990700861439109,-0.0030875576194375753,-9.8077001571655273,0.0017709336243569851,8
1.4728660583496094,-78.008621215820312,-0.29244464635848999,0.23697549104690552,-39.196819305419922,-0.0014462381368502975,0.002545416122302413,-9.8096456527709961,0.0010673864744603634,8
2.8017916679382324,-77.818710327148438,-0.38021883368492126,0.49931871891021729,-39.12762451171875,-0.010018927045166492,0.0079652667045593262,-9.8025503158569336,0.003696502884849906,8
-2.8174839019775391,-77.819992065429688,-0.12533336877822876,-0.49927401542663574,-39.127830505371094,-0.0034534069709479809,-0.0078275799751281738,-9.8025503158569336,0.0012800841359421611,8
-1.4373579025268555,-78.015411376953125,-0.096233807504177094,-0.23677356541156769,-39.196266174316406,-0.0003937812871299684,-0.0029879806097596884,-9.8094167709350586,0.00036298265331424773,8
-0.37583991885185242,-78.398712158203125,-0.056111440062522888,-0.0029999928083270788,-39.304618835449219,0.0036552781239151955,0.0032933473121374846,-9.8080434799194336,0.00054573174566030502,8
0.44181773066520691,-78.3985595703125,-0.057102590799331665,0.013633892871439457,-39.304607391357422,0.0036436114460229874,-0.0035285574849694967,-9.8077001571655273,0.00056846061488613486,8
1.4371885061264038,-78.017929077148438,-0.096134155988693237,0.23662653565406799,-39.196918487548828,-0.0003825984604191035,0.0029651818331331015,-9.8094167709350586,0.00036239766632206738,8
2.8175292015075684,-77.82000732421875,-0.12533417344093323,0.4992879331111908,-39.127834320068359,-0.0034536754246801138,0.0078275799751281738,-9.8025503158569336,0.0012800282565876842,8
-2.8174846172332764,-77.819992065429688,0.12534338235855103,-0.49927410483360291,-39.127830505371094,0.0034581862855702639,-0.0078275799751281738,-9.8025503158569336,-0.0012794135836884379,8
-1.4373205900192261,-78.015419006347656,0.097189910709857941,-0.23677076399326324,-39.196266174316406,0.00070634420262649655,-0.0029897687491029501,-9.8094167709350586,-0.00036500216810964048,8
-0.37615513801574707,-78.398033142089844,0.094427645206451416,-0.0030565874185413122,-39.304576873779297,0.0063056834042072296,0.0033259738702327013,-9.8080434799194336,-0.00054786913096904755,8
0.44217327237129211,-78.398185729980469,0.09336959570646286,0.013693810440599918,-39.304527282714844,0.0062050027772784233,-0.0035692097153514624,-9.8077001571655273,-0.00049641821533441544,8
1.43715500831604,-78.017929077148438,0.097170814871788025,0.23662391304969788,-39.196922302246094,0.00071533629670739174,0.0029665229376405478,-9.8094167709350586,-0.00036438225652091205,8
2.8175299167633057,-77.82000732421875,0.12534292042255402,0.49928805232048035,-39.127834320068359,0.0034580093342810869,0.0078275799751281738,-9.8025503158569336,-0.0012794345384463668,8
-2.8017499446868896,-77.818695068359375,0.380228191614151,-0.49930506944656372,-39.127620697021484,0.010023416951298714,-0.007966160774230957,-9.8025503158569336,-0.0036959161516278982,8
-1.4728488922119141,-78.006523132324219,0.29343438148498535,-0.2371036559343338,-39.196163177490234,0.0017672316171228886,-0.0025820729788392782,-9.8096456527709961,-0.0010667159222066402,8
-0.37115514278411865,-78.404045104980469,0.26069954037666321,-0.0020506354048848152,-39.304622650146484,0.0095445523038506508,0.0029244597535580397,-9.8080434799194336,-0.0018769315211102366,8
0.43614709377288818,-78.404304504394531,0.25937026739120483,0.012663806788623333,-39.304515838623047,0.0093638869002461433,-0.0031576023902744055,-9.8077001571655273,-0.0018114967970177531,8
1.4727791547775269,-78.008644104003906,0.29340213537216187,0.23696725070476532,-39.196823120117188,0.0017759882612153888,0.0025507805403321981,-9.8096456527709961,-0.0010660209227353334,8
2.8017950057983398,-77.818710327148438,0.38022828102111816,0.49931901693344116,-39.12762451171875,0.010023368522524834,0.0079652667045593262,-9.8025503158569336,-0.0036959720309823751,8
-2.7644896507263184,-77.816093444824219,0.65074366331100464,-0.49945229291915894,-39.127212524414062,0.015178805217146873,-0.0081297755241394043,-9.8026647567749023,-0.0055808383040130138,8
-1.550737738609314,-77.991195678710938,0.51072728633880615,-0.23770731687545776,-39.195960998535156,0.0026873631868511438,-0.0018694995669648051,-9.8098745346069336,-0.0016735725803300738,8
-0.38409069180488586,-78.392127990722656,0.43139815330505371,-0.001083386829122901,-39.304439544677734,0.011586089618504047,0.0025772219523787498,-9.8080434799194336,-0.0027645749505609274,8
-0.21761581301689148,-78.404731750488281,0.43577194213867188,0.00076225947123020887,-39.304702758789062,0.012565124779939651,0.0017702578334137797,-9.8077001571655273,-0.0030889266636222601,8
-0.057090636342763901,-78.398551940917969,0.44181498885154724,0.0036469497717916965,-39.304607391357422,0.013629929162561893,0.00056796468561515212,-9.8077001571655273,-0.0035277751740068197,8
0.093395963311195374,-78.398185729980469,0.44215938448905945,0.0062092356383800507,-39.304527282714844,0.013689059764146805,-0.00049718655645847321,-9.8077001571655273,-0.0035674774553626776,8
0.25942468643188477,-78.404304504394531,0.43610960245132446,0.0093698827549815178,-39.304515838623047,0.012657739222049713,-0.0018132849363610148,-9.8077001571655273,-0.0031555348541587591,8
0.43105781078338623,-78.39190673828125,0.43089258670806885,0.011511459015309811,-39.304283142089844,0.01150335930287838,-0.0027698555495589972,-9.8080434799194336,-0.0027670615818351507,8
1.5507708787918091,-77.992973327636719,0.51073205471038818,0.23758770525455475,-39.196613311767578,0.0026976070366799831,0.0018265842227265239,-9.8098745346069336,-0.0016738170525059104,8
2.7645344734191895,-77.816108703613281,0.65074378252029419,0.49946606159210205,-39.127216339111328,0.015178828500211239,0.0081297755241394043,-9.8026647567749023,-0.0055809221230447292,8
-2.12345290184021,-77.793594360351562,1.5918583869934082,-0.31356322765350342,-39.118247985839844,0.24962241947650909,-0.013503133319318295,-9.8008337020874023,-0.0017085670260712504,8
-1.7258446216583252,-77.825141906738281,1.7258532047271729,-0.27307248115539551,-39.126667022705078,0.27307301759719849,-0.0091034164652228355,-9.7974004745483398,0.0091016283258795738,8
-0.50989365577697754,-77.992919921875,1.550881028175354,-0.0023728550877422094,-39.196605682373047,0.23760046064853668,0.0016800266457721591,-9.8098745346069336,0.0018180905608460307,8
-0.29244658350944519,-78.008636474609375,1.4728626012802124,-0.0014469778398051858,-39.196819305419922,0.23697438836097717,0.0010673829820007086,-9.8096456527709961,0.002545416122302413,8
-0.096136100590229034,-78.017929077148438,1.437186598777771,-0.00038333682459779084,-39.196918487548828,0.23662543296813965,0.00036238893517293036,-9.8094167709350586,0.002964734798297286,8
0.097167722880840302,-78.017929077148438,1.4371548891067505,0.00071457971353083849,-39.196922302246094,0.23662281036376953,-0.00036437876406125724,-9.8094167709350586,0.0029660759028047323,8
0.29339855909347534,-78.008644104003906,1.4727778434753418,0.0017752315616235137,-39.196823120117188,0.23696619272232056,-0.0010660139378160238,-9.8096456527709961,0.0025507805403321981,8
0.51072812080383301,-77.992973327636719,1.5507699251174927,0.0026968310121446848,-39.196613311767578,0.2375866174697876,-0.0016738030826672912,-9.8098745346069336,0.0018261371878907084,8
1.7259057760238647,-77.825141906738281,1.7259029150009155,0.27309921383857727,-39.12664794921875,0.27309632301330566,0.0090855350717902184,-9.7974004745483398,0.0090855350717902184,8
2.1234791278839111,-77.793609619140625,1.5918699502944946,0.31357067823410034,-39.118251800537109,0.24962611496448517,0.013501345179975033,-9.8008337020874023,-0.0017099081305786967,8
-1.9212661981582642,-77.799751281738281,1.9212716817855835,-0.27497866749763489,-39.124137878417969,0.27497860789299011,-0.0065839285962283611,-9.7998037338256836,0.0065821404568850994,8
-1.591846227645874,-77.793594360351562,2.1234679222106934,-0.24961826205253601,-39.118247985839844,0.31356900930404663,0.0017085670260712504,-9.8008337020874023,0.013503133319318295,8
-0.65073376893997192,-77.816116333007812,2.7645230293273926,-0.015174365602433681,-39.127220153808594,0.4994635283946991,0.0055814529769122601,-9.8026647567749023,0.0081297755241394043,8
-0.38021847605705261,-77.818717956542969,2.8017828464508057,-0.010019015520811081,-39.127628326416016,0.4993167519569397,0.0036964749451726675,-9.8025503158569336,0.0079652667045593262,8
-0.12533384561538696,-77.82000732421875,2.8175222873687744,-0.0034536968450993299,-39.127838134765625,0.49928626418113708,0.0012800422264263034,-9.8025503158569336,0.0078275799751281738,8
0.12534242868423462,-77.82000732421875,2.8175234794616699,0.0034579627681523561,-39.127838134765625,0.49928653240203857,-0.0012794415233656764,-9.8025503158569336,0.0078275799751281738,8
0.38022711873054504,-77.818717956542969,2.8017876148223877,0.010023254901170731,-39.127628326416016,0.49931737780570984,-0.0036958882119506598,-9.8025503158569336,0.0079652667045593262,8
0.65074306726455688,-77.816116333007812,2.7645294666290283,0.015178673900663853,-39.127220153808594,0.49946415424346924,-0.0055808941833674908,-9.8026647567749023,0.0081297755241394043,8
1.5918670892715454,-77.793601989746094,2.1234850883483887,0.24962387979030609,-39.118247985839844,0.31357470154762268,-0.0017108022002503276,-9.8008337020874023,0.013502239249646664,8
1.921306848526001,-77.799728393554688,1.9213002920150757,0.27500030398368835,-39.124126434326172,0.27499693632125854,0.0065821404568850994,-9.7998037338256836,0.0065812463872134686,8
-1.9928580522537231,-77.524993896484375,-1.9928469657897949,-0.28082489967346191,-39.115299224853516,-0.28082031011581421,-0.0032991168554872274,-9.8032369613647461,-0.0032982227858155966,8
-1.6265319585800171,-77.525108337402344,-2.2174289226531982,-0.24790649116039276,-39.112075805664062,-0.3233281672000885,0.00093519681831821799,-9.8032369613647461,-0.0083827972412109375,8
-0.66044658422470093,-77.56109619140625,-2.8585855960845947,-0.016862470656633377,-39.122207641601562,-0.50462454557418823,0.00586291728541255,-9.8039236068725586,-0.0061100716702640057,8
-0.38538661599159241,-77.564598083496094,-2.8989822864532471,-0.010874303057789803,-39.122661590576172,-0.50466376543045044,0.0037933976855129004,-9.8039236068725586,-0.0058382744900882244,8
-0.12701639533042908,-77.566169738769531,-2.9166684150695801,-0.0036970674991607666,-39.122875213623047,-0.50474387407302856,0.0013087502447888255,-9.8039236068725586,-0.0056415791623294353,8
0.1270267516374588,-77.566169738769531,-2.9166691303253174,0.0037019415758550167,-39.122875213623047,-0.50474405288696289,-0.0013083171797916293,-9.8039236068725586,-0.0056415791623294353,8
0.38539621233940125,-77.564598083496094,-2.8989849090576172,0.010879093781113625,-39.122661590576172,-0.50466430187225342,-0.0037929785903543234,-9.8039236068725586,-0.0058382744900882244,8
0.66045713424682617,-77.56109619140625,-2.8585901260375977,0.016867261379957199,-39.122207641601562,-0.50462538003921509,-0.0058625820092856884,-9.8039236068725586,-0.0061100716702640057,8
1.6265416145324707,-77.525123596191406,-2.2174415588378906,0.24791030585765839,-39.112079620361328,-0.32333192229270935,-0.00093564385315403342,-9.8032369613647461,-0.0083827972412109375,8
1.9928748607635498,-77.524993896484375,-1.9928604364395142,0.28083500266075134,-39.115299224853516,-0.28082868456840515,0.0032991168554872274,-9.8032369613647461,-0.0032991168554872274,8
-2.2174229621887207,-77.525123596191406,-1.6265343427658081,-0.32332426309585571,-39.112079620361328,-0.24790863692760468,-0.0083819031715393066,-9.8032369613647461,0.00093474978348240256,8
-1.7962449789047241,-77.54541015625,-1.7962316274642944,-0.27845054864883423,-39.118907928466797,-0.27844595909118652,-0.0048726792447268963,-9.8015203475952148,-0.0048717851750552654,8
-0.51888686418533325,-77.7762451171875,-1.6018253564834595,-0.0026514013297855854,-39.195682525634766,-0.23898217082023621,0.0018687451956793666,-9.8101034164428711,-0.0006160139455460012,8
-0.29967048764228821,-77.795867919921875,-1.5241806507110596,-0.0016204279381781816,-39.195999145507812,-0.23802803456783295,0.0011786700924858451,-9.8097600936889648,-0.00176534045021981,8
-0.097586050629615784,-77.805755615234375,-1.4871045351028442,-0.00043086500954814255,-39.196163177490234,-0.23751766979694366,0.00038706228951923549,-9.8094167709350586,-0.0024439392145723104,8
0.098656028509140015,-77.805801391601562,-1.4870290756225586,0.00074396136915311217,-39.196163177490234,-0.23751461505889893,-0.00039515431853942573,-9.8094167709350586,-0.0024452803190797567,8
0.30059689283370972,-77.795944213867188,-1.5239949226379395,0.0019289543852210045,-39.196002960205078,-0.23801805078983307,-0.0011806957190856338,-9.8097600936889648,-0.001771598937921226,8
0.51967442035675049,-77.776313781738281,-1.6016737222671509,0.0029549039900302887,-39.195690155029297,-0.23896642029285431,-0.001863897661678493,-9.8101034164428711,-0.00062584871193394065,8
1.7962677478790283,-77.54541015625,-1.7962508201599121,0.27846300601959229,-39.118904113769531,-0.27845636010169983,0.0048717851750552654,-9.8015203475952148,-0.0048717851750552654,8
2.2174408435821533,-77.525123596191406,-1.6265412569046021,0.32333040237426758,-39.112079620361328,-0.24791087210178375,0.0083819031715393066,-9.8032369613647461,0.00093519681831821799,8
-2.8585724830627441,-77.56109619140625,-0.66044509410858154,-0.50462114810943604,-39.122207641601562,-0.016862016171216965,-0.0061100716702640057,-9.8039236068725586,0.0058630290441215038,8
-1.601833701133728,-77.7762451171875,-0.5188823938369751,-0.23898309469223022,-39.195682525634766,-0.0026507331058382988,-0.00061556691071018577,-9.8101034164428711,0.0018687591655179858,8
-0.41400906443595886,-78.201393127441406,-0.41399839520454407,-0.0016342127928510308,-39.303180694580078,-0.0016333569074049592,0.0030591674149036407,-9.8095312118530273,0.0030580288730561733,8
-0.20976945757865906,-78.225265502929688,-0.37900012731552124,0.00096134416526183486,-39.303653717041016,-0.0023842232767492533,0.0017832847079262137,-9.8090734481811523,0.0032448440324515104,8
-0.050740677863359451,-78.222465515136719,-0.38517540693283081,0.0038875420577824116,-39.303619384765625,-0.0032292103860527277,0.00047855076263658702,-9.8090734481811523,0.0036030656192451715,8
0.089227505028247833,-78.222496032714844,-0.38541772961616516,0.0060980836860835552,-39.303611755371094,-0.0032618229743093252,-0.00051657669246196747,-9.8090734481811523,0.0036221274640411139,8
0.25250649452209473,-78.224922180175781,-0.37957072257995605,0.0092133739963173866,-39.303630828857422,-0.0024699666537344456,-0.0019010155228897929,-9.8090734481811523,0.0032906231936067343,8
0.4579816460609436,-78.2017822265625,-0.41310739517211914,0.012009650468826294,-39.303226470947266,-0.0015595589065924287,-0.00324066705070436,-9.8094167709350586,0.0030234046280384064,8
1.6018755435943604,-77.77801513671875,-0.51885783672332764,0.23886443674564362,-39.196327209472656,-0.0026427190750837326,0.00057622784515842795,-9.8101034164428711,0.0018706870032474399,8
2.8586122989654541,-77.561111450195312,-0.6604459285736084,0.5046345591545105,-39.122211456298828,-0.01686239056289196,0.0061100716702640057,-9.8039236068725586,0.00586291728541255,8
-2.8989672660827637,-77.564598083496094,-0.38538560271263123,-0.50466030836105347,-39.122661590576172,-0.010874019004404545,-0.0058382744900882244,-9.8039236068725586,0.0037934535648673773,8
-1.5241888761520386,-77.795867919921875,-0.29966771602630615,-0.23802891373634338,-39.195999145507812,-0.0016197806689888239,-0.00176534045021981,-9.8097600936889648,0.0011787050170823932,8
-0.37901407480239868,-78.225265502929688,-0.20975898206233978,-0.0023848467972129583,-39.303653717041016,0.00096183700952678919,0.0032458498608320951,-9.8090734481811523,0.0017822561785578728,8
0.44558566808700562,-78.225181579589844,-0.21047963201999664,0.013001811690628529,-39.303684234619141,0.0010644304566085339,-0.0035379172768443823,-9.8090734481811523,0.0017541715642437339,8
1.5241044759750366,-77.797920227050781,-0.2996237576007843,0.2378838062286377,-39.196659088134766,-0.0016107267001643777,0.0017519294051453471,-9.8097600936889648,0.0011797492625191808,8
2.8990044593811035,-77.564613342285156,-0.38538685441017151,0.50467389822006226,-39.122665405273438,-0.010874433442950249,0.0058400626294314861,-9.8039236068725586,0.0037932300474494696,8
-2.9166579246520996,-77.566169738769531,-0.1270163506269455,-0.50474047660827637,-39.122875213623047,-0.003696914529427886,-0.0056415791623294353,-9.8039236068725586,0.0013087851693853736,8
-1.4871110916137695,-77.805755615234375,-0.097584180533885956,-0.23751845955848694,-39.196163177490234,-0.00043020068551413715,-0.0024439392145723104,-9.8094167709350586,0.00038709110231138766,8
-0.38518998026847839,-78.222457885742188,-0.050731673836708069,-0.0032295184209942818,-39.303619384765625,0.0038875171449035406,0.0036039946135133505,-9.8090734481811523,0.00047774749691598117,8
0.45163241028785706,-78.222877502441406,-0.051955200731754303,0.013839081861078739,-39.303672790527344,0.0038598077371716499,-0.0038906557019799948,-9.8090734481811523,0.00049886293709278107,8
1.4869602918624878,-77.808158874511719,-0.097536101937294006,0.23735174536705017,-39.19683837890625,-0.00042003480484709144,0.0024569032248109579,-9.8094167709350586,0.00038706054328940809,8
2.9166967868804932,-77.566184997558594,-0.12701712548732758,0.50475418567657471,-39.122879028320312,-0.0036971771623939276,0.0056433673016726971,-9.8039236068725586,0.0013087572297081351,8
-2.9166584014892578,-77.566169738769531,0.12702712416648865,-0.50474059581756592,-39.122875213623047,0.003702105488628149,-0.0056415791623294353,-9.8039236068725586,-0.0013082822551950812,8
-1.4870342016220093,-77.805801391601562,0.098658479750156403,-0.23751531541347504,-39.196163177490234,0.00074464629869908094,-0.0024452803190797567,-9.8094167709350586,-0.00039517178083769977,8
-0.38543230295181274,-78.222496032714844,0.089234530925750732,-0.0032617461401969194,-39.303611755371094,0.0060975132510066032,0.0036229866091161966,-9.8090734481811523,-0.00051703769713640213,8
0.45189380645751953,-78.222503662109375,0.088451288640499115,0.013868213631212711,-39.303646087646484,0.0060254768468439579,-0.0039085093885660172,-9.8090734481811523,-0.00048067417810671031,8
1.4868603944778442,-77.808181762695312,0.09867481142282486,0.23734885454177856,-39.196842193603516,0.00075491552706807852,0.0024582443293184042,-9.8094167709350586,-0.00039586852653883398,8
2.9166975021362305,-77.566184997558594,0.12702621519565582,0.50475430488586426,-39.122879028320312,0.0037018673028796911,0.0056415791623294353,-9.8039236068725586,-0.0013083241647109389,8
-2.8989701271057129,-77.564598083496094,0.38539707660675049,-0.50466078519821167,-39.122661590576172,0.010879366658627987,-0.0058382744900882244,-9.8039236068725586,-0.0037929785903543234,8
-1.5239994525909424,-77.795944213867188,0.30059978365898132,-0.23801872134208679,-39.196002960205078,0.0019296377431601286,-0.001771598937921226,-9.8097600936889648,-0.0011807166738435626,8
-0.37958398461341858,-78.224922180175781,0.25251123309135437,-0.0024691866710782051,-39.303630828857422,0.0092118307948112488,0.0032912797760218382,-9.8090734481811523,-0.0019009317038580775,8
0.44599780440330505,-78.224685668945312,0.25108057260513306,0.0130783561617136,-39.303611755371094,0.0090088006108999252,-0.0035776754375547171,-9.8090734481811523,-0.0018213036237284541,8
1.5239530801773071,-77.7979736328125,0.30061966180801392,0.23787428438663483,-39.196662902832031,0.0019406047649681568,0.0017581878928467631,-9.8096456527709961,-0.0011818761704489589,8
2.8990073204040527,-77.564613342285156,0.38539689779281616,0.50467437505722046,-39.122665405273438,0.010879281908273697,0.0058400626294314861,-9.8039236068725586,-0.0037928668316453695,8
-2.8585755825042725,-77.56109619140625,0.66045796871185303,-0.50462180376052856,-39.122207641601562,0.016867611557245255,-0.0061100716702640057,-9.8039236068725586,-0.0058625820092856884,8
-1.6016764640808105,-77.776313781738281,0.51967787742614746,-0.23896710574626923,-39.195690155029297,0.0029556043446063995,-0.00062584871193394065,-9.8101034164428711,-0.0018639046465978026,8
-0.41311302781105042,-78.201789855957031,0.45798122882843018,-0.0015581181505694985,-39.303226470947266,0.0120072141289711,0.0030236351303756237,-9.8095312118530273,-0.0032403317745774984,8
-0.21047858893871307,-78.225189208984375,0.44558286666870117,0.0010667614405974746,-39.303684234619141,0.012998586520552635,0.0017541191773489118,-9.8090734481811523,-0.0035370511468499899,8
-0.051944304257631302,-78.222877502441406,0.45162725448608398,0.0038631544448435307,-39.303672790527344,0.0138350585475564,0.000498227309435606,-9.8090734481811523,-0.0038895101752132177,8
0.088471986353397369,-78.222503662109375,0.45188233256340027,0.0060296347364783287,-39.303642272949219,0.013863593339920044,-0.00048177779535762966,-9.8090734481811523,-0.0039071682840585709,8
0.25111958384513855,-78.224685668945312,0.44597023725509644,0.0090142656117677689,-39.303611755371094,0.01307283341884613,-0.0018230079440400004,-9.8090734481811523,-0.0035759990569204092,8
0.45717215538024902,-78.202033996582031,0.45711943507194519,0.01190616749227047,-39.303203582763672,0.011899843811988831,-0.0031962709035724401,-9.8094167709350586,-0.0031942592468112707,8
1.6017401218414307,-77.778068542480469,0.51970559358596802,0.2388492226600647,-39.196334838867188,0.0029669036157429218,0.00058606261154636741,-9.8101034164428711,-0.0018650362035259604,8
2.8586146831512451,-77.561111450195312,0.66045773029327393,0.50463533401489258,-39.122211456298828,0.016867535188794136,0.0061100716702640057,-9.8039236068725586,-0.0058625820092856884,8
-2.2174251079559326,-77.525123596191406,1.6265422105789185,-0.32332664728164673,-39.112079620361328,0.24791164696216583,-0.0083819031715393066,-9.8032369613647461,-0.00093564385315403342,8
-1.7962530851364136,-77.54541015625,1.796252965927124,-0.27845838665962219,-39.118904113769531,0.27845817804336548,-0.0048717851750552654,-9.8015203475952148,0.0048717851750552654,8
-0.51886099576950073,-77.778022766113281,1.6018720865249634,-0.0026434618048369884,-39.196327209472656,0.23886336386203766,0.0018706939881667495,-9.8101034164428711,0.00057622784515842795,8
-0.29962551593780518,-77.797920227050781,1.5241010189056396,-0.0016114551108330488,-39.196659088134766,0.23788273334503174,0.0011797387851402164,-9.8097600936889648,0.0017519294051453471,8
-0.097537942230701447,-77.80816650390625,1.4869562387466431,-0.00042074787779711187,-39.19683837890625,0.23735056817531586,0.00038702911115251482,-9.8094167709350586,0.0024564561899751425,8
0.098671697080135345,-77.808181762695312,1.4868600368499756,0.00075417541665956378,-39.196842193603516,0.23734770715236664,-0.00039589297375641763,-9.8094167709350586,0.0024577972944825888,8
0.30061548948287964,-77.7979736328125,1.523951530456543,0.0019398347940295935,-39.196662902832031,0.23787315189838409,-0.0011818831553682685,-9.8096456527709961,0.0017581878928467631,8
0.51970022916793823,-77.778076171875,1.6017382144927979,0.0029660870786756277,-39.196334838867188,0.238848015666008,-0.0018650292186066508,-9.8101034164428711,0.00058606261154636741,8
1.7962825298309326,-77.54541015625,1.7962758541107178,0.27847543358802795,-39.118892669677734,0.27847257256507874,0.0048691029660403728,-9.8015203475952148,0.0048691029660403728,8
2.2174472808837891,-77.525123596191406,1.6265488862991333,0.32333430647850037,-39.112079620361328,0.24791440367698669,0.0083827972412109375,-9.8032369613647461,-0.00093609088798984885,8
-1.9928649663925171,-77.524986267089844,1.9928637742996216,-0.28083145618438721,-39.11529541015625,0.28083088994026184,-0.0032991168554872274,-9.8032369613647461,0.0032991168554872274,8
-1.6265327930450439,-77.525123596191406,2.2174394130706787,-0.24790799617767334,-39.112079620361328,0.32333171367645264,0.00093519681831821799,-9.8032369613647461,0.0083819031715393066,8
-0.66044670343399048,-77.561119079589844,2.8586034774780273,-0.016862645745277405,-39.122215270996094,0.50463253259658813,0.00586291728541255,-9.8039236068725586,0.0061100716702640057,8
-0.38538619875907898,-77.564620971679688,2.8989965915679932,-0.010874424129724503,-39.122669219970703,0.50467193126678467,0.0037932300474494696,-9.8039236068725586,0.0058400626294314861,8
-0.1270163506269455,-77.566192626953125,2.9166882038116455,-0.0036970926448702812,-39.122882843017578,0.50475209951400757,0.0013087572297081351,-9.8039236068725586,0.0056415791623294353,8
0.12702561914920807,-77.566200256347656,2.9166884422302246,0.0037017171271145344,-39.122882843017578,0.50475198030471802,-0.0013082962250337005,-9.8039236068725586,0.0056415791623294353,8
0.38539537787437439,-77.564628601074219,2.8989987373352051,0.010879057459533215,-39.122669219970703,0.50467216968536377,-0.0037928109522908926,-9.8039236068725586,0.0058400626294314861,8
0.66045671701431274,-77.561111450195312,2.8586101531982422,0.016867475584149361,-39.122215270996094,0.50463372468948364,-0.0058625820092856884,-9.8039236068725586,0.0061100716702640057,8
1.6265456676483154,-77.525123596191406,2.2174510955810547,0.24791255593299866,-39.112079620361328,0.32333636283874512,-0.00093609088798984885,-9.8032369613647461,0.0083827972412109375,8
1.9928861856460571,-77.524986267089844,1.9928776025772095,0.28084483742713928,-39.115291595458984,0.28084194660186768,0.0033009049948304892,-9.8032369613647461,0.0033000109251588583,8
-2.0516641139984131,-77.267539978027344,-2.0516517162322998,-0.28736281394958496,-39.104358673095703,-0.28735834360122681,-0.00038981434772722423,-9.8063268661499023,-0.00038981434772722423,8
-1.651121973991394,-77.275367736816406,-2.3016617298126221,-0.24617673456668854,-39.10418701171875,-0.33463811874389648,0.00071436160942539573,-9.8059835433959961,-0.0038355586584657431,8
-0.67375731468200684,-77.326812744140625,-2.9332871437072754,-0.019046058878302574,-39.115741729736328,-0.5109400749206543,0.0063150371424853802,-9.8059835433959961,-0.0036191937979310751,8
-0.39206358790397644,-77.333885192871094,-2.975428581237793,-0.011984539218246937,-39.116596221923828,-0.51090574264526367,0.0039737485349178314,-9.8058691024780273,-0.0033581254538148642,8
-0.1285327821969986,-77.3367919921875,-2.9934735298156738,-0.0039371936582028866,-39.117008209228516,-0.51095700263977051,0.0013482150388881564,-9.8056402206420898,-0.0031507012899965048,8
0.1285453736782074,-77.3367919921875,-2.9934747219085693,0.0039426353760063648,-39.117008209228516,-0.51095718145370483,-0.0013480194611474872,-9.8056402206420898,-0.0031489131506532431,8
0.39207625389099121,-77.333885192871094,-2.9754312038421631,0.011989894323050976,-39.116596221923828,-0.51090633869171143,-0.0039735808968544006,-9.8058691024780273,-0.0033581254538148642,8
0.67376995086669922,-77.326812744140625,-2.9332911968231201,0.01905125193297863,-39.115741729736328,-0.51094096899032593,-0.0063149812631309032,-9.8059835433959961,-0.0036174056585878134,8
1.6511286497116089,-77.275382995605469,-2.3016667366027832,0.2461799681186676,-39.104190826416016,-0.3346400260925293,-0.0007139145745895803,-9.8059835433959961,-0.0038355586584657431,8
2.051673412322998,-77.267539978027344,-2.0516602993011475,0.2873692512512207,-39.104358673095703,-0.28736394643783569,0.00039160248707048595,-9.8063268661499023,-0.00039160248707048595,8
-2.3016552925109863,-77.275382995605469,-1.6511255502700806,-0.33463403582572937,-39.104190826416016,-0.24617891013622284,-0.0038337705191224813,-9.8059835433959961,0.0007139145745895803,8
-1.8591387271881104,-77.294731140136719,-1.8591208457946777,-0.28430518507957458,-39.109600067138672,-0.28430068492889404,-0.001603066804818809,-9.8049535751342773,-0.001603066804818809,8
-0.54585391283035278,-77.581672668457031,-1.72162926197052,-0.0032484105322510004,-39.195182800292969,-0.24118970334529877,0.0022722010035067797,-9.8104467391967773,0.0015789269236847758,8
-0.31395015120506287,-77.614608764648438,-1.6240689754486084,-0.0020225129555910826,-39.195652008056641,-0.23957090079784393,0.0014477641088888049,-9.8099889755249023,-0.00026285648345947266,8
-0.10116325318813324,-77.634162902832031,-1.572650671005249,-0.00055310770403593779,-39.195980072021484,-0.23854827880859375,0.00046484635095112026,-9.8094167709350586,-0.001813173177652061,8
0.10234168171882629,-77.634193420410156,-1.572601318359375,0.00086724729044362903,-39.195980072021484,-0.23854483664035797,-0.00048116836114786565,-9.8094167709350586,-0.001813173177652061,8
0.31490644812583923,-77.614692687988281,-1.6239210367202759,0.002329305512830615,-39.195655822753906,-0.23955866694450378,-0.0014498875243589282,-9.8099889755249023,-0.00027000904083251953,8
0.54661595821380615,-77.581764221191406,-1.7214783430099487,0.0035483157262206078,-39.1951904296875,-0.24117107689380646,-0.002265209099277854,-9.8104467391967773,0.0015677510527893901,8
1.8591501712799072,-77.294731140136719,-1.859133243560791,0.28431367874145508,-39.109596252441406,-0.28430798649787903,0.0016057490138337016,-9.8049535751342773,-0.0016048549441620708,8
2.3016653060913086,-77.275382995605469,-1.6511309146881104,0.33463871479034424,-39.104190826416016,-0.24618077278137207,0.0038337705191224813,-9.8059835433959961,0.0007139145745895803,8
-2.9332742691040039,-77.326812744140625,-0.67375504970550537,-0.51093679666519165,-39.115741729736328,-0.019045516848564148,-0.0036191937979310751,-9.8059835433959961,0.0063150371424853802,8
-1.7216349840164185,-77.581687927246094,-0.54585033655166626,-0.24119029939174652,-39.195182800292969,-0.0032476608175784349,0.0015793739585205913,-9.8104467391967773,0.0022722219582647085,8
-0.48987483978271484,-78.018623352050781,-0.48986539244651794,-0.0029294684063643217,-39.301345825195312,-0.0029283063486218452,0.004086268600076437,-9.8111333847045898,0.0040850881487131119,8
-0.25701093673706055,-78.044082641601562,-0.45451244711875916,6.7963330366183072e-05,-39.302055358886719,-0.0028787308838218451,0.0024080052971839905,-9.8104467391967773,0.0038256191182881594,8
-0.067045621573925018,-78.070472717285156,-0.42437267303466797,0.0036372891627252102,-39.302474975585938,-0.0032957189250737429,0.00062978122150525451,-9.8101034164428711,0.0038721596356481314,8
0.1016765758395195,-78.070976257324219,-0.42432063817977905,0.0063015157356858253,-39.302490234375,-0.0033138154540210962,-0.00065132969757542014,-9.8101034164428711,0.0038775589782744646,8
0.29286882281303406,-78.045372009277344,-0.45413541793823242,0.010019448585808277,-39.302108764648438,-0.0029059378430247307,-0.002474840497598052,-9.8104467391967773,0.0038303479086607695,8
0.52452772855758667,-78.019981384277344,-0.4884650707244873,0.013100526295602322,-39.301486968994141,-0.0028217332437634468,-0.0041531212627887726,-9.8111333847045898,0.0040139956399798393,8
1.721729040145874,-77.583198547363281,-0.54585087299346924,0.24108844995498657,-39.195816040039062,-0.0032411473803222179,-0.0016254185466095805,-9.8104467391967773,0.0022749879863113165,8
2.9333152770996094,-77.326812744140625,-0.67375683784484863,0.51095157861709595,-39.115745544433594,-0.019046397879719734,0.0036191937979310751,-9.8059835433959961,0.0063149812631309032,8
-2.9754130840301514,-77.333885192871094,-0.39206254482269287,-0.51090246438980103,-39.116596221923828,-0.01198422908782959,-0.0033581254538148642,-9.8058691024780273,0.0039738044142723083,8
-1.624075174331665,-77.614608764648438,-0.31394755840301514,-0.23957173526287079,-39.195652008056641,-0.002021855441853404,-0.00026285648345947266,-9.8099889755249023,0.0014477710938081145,8
-0.45452332496643066,-78.044075012207031,-0.25700044631958008,-0.0028795599937438965,-39.302055358886719,6.8682915298268199e-05,0.0038266878109425306,-9.8104467391967773,0.0024069142527878284,8
0.49746426939964294,-78.045112609863281,-0.25705644488334656,0.013264748267829418,-39.302181243896484,0.00014540937263518572,-0.0040085893124341965,-9.8104467391967773,0.0023675812408328056,8
1.6240813732147217,-77.616424560546875,-0.3139607310295105,0.23943445086479187,-39.196304321289062,-0.0020149608608335257,0.00025033950805664062,-9.8099889755249023,0.0014504602877423167,8
2.9754574298858643,-77.333892822265625,-0.39206430315971375,0.510917067527771,-39.116600036621094,-0.011984968557953835,0.0033581254538148642,-9.8058691024780273,0.003973720595240593,8
-2.9934604167938232,-77.3367919921875,-0.12853263318538666,-0.51095372438430786,-39.117008209228516,-0.0039370297454297543,-0.0031507012899965048,-9.8056402206420898,0.0013482429785653949,8
-1.5726573467254639,-77.634162902832031,-0.10116138309240341,-0.23854894936084747,-39.195980072021484,-0.00055246351985260844,-0.001813173177652061,-9.8094167709350586,0.00046487429062835872,8
-0.42438700795173645,-78.070472717285156,-0.06703687459230423,-0.0032961135730147362,-39.302474975585938,0.003637359943240881,0.0038730327505618334,-9.8101034164428711,0.0006288242875598371,8
0.47372615337371826,-78.070510864257812,-0.067798145115375519,0.013803035952150822,-39.302570343017578,0.0036234236322343349,-0.0041243992745876312,-9.8101034164428711,0.00063906417926773429,8
1.5725444555282593,-77.636360168457031,-0.10114870220422745,0.23835106194019318,-39.196670532226562,-0.00054336618632078171,0.0019164382247254252,-9.8094167709350586,0.00046519385068677366,8
2.9935016632080078,-77.336807250976562,-0.12853403389453888,0.51096785068511963,-39.117012023925781,-0.0039374916814267635,0.0031507012899965048,-9.8056402206420898,0.0013481870992109179,8
-2.9934623241424561,-77.3367919921875,0.12854580581188202,-0.51095390319824219,-39.117008209228516,0.0039427643641829491,-0.0031507012899965048,-9.8056402206420898,-0.0013479915214702487,8
-1.5726041793823242,-77.634208679199219,0.10234416276216507,-0.23854526877403259,-39.195980072021484,0.00086791551439091563,-0.0018145142821595073,-9.8094167709350586,-0.00048115439130924642,8
-0.4243338406085968,-78.070960998535156,0.10168305039405823,-0.0033137763384729624,-39.302490234375,0.0063009602017700672,0.0038782854098826647,-9.8101034164428711,-0.00065205612918362021,8
0.4738115668296814,-78.070899963378906,0.10138999670743942,0.013820165768265724,-39.302570343017578,0.006243197713047266,-0.0041294284164905548,-9.8101034164428711,-0.00062302680453285575,8
1.5724670886993408,-77.636398315429688,0.10239242762327194,0.2383473813533783,-39.196670532226562,0.00087977724615484476,0.0019177793292328715,-9.8094167709350586,-0.00048399725346826017,8
2.9935033321380615,-77.336807250976562,0.12854504585266113,0.51096802949905396,-39.117012023925781,0.0039426316507160664,0.0031507012899965048,-9.8056402206420898,-0.0013479775516316295,8
-2.9754166603088379,-77.333885192871094,0.39207673072814941,-0.51090288162231445,-39.116596221923828,0.011990103870630264,-0.0033581254538148642,-9.8058691024780273,-0.0039735808968544006,8
-1.6239228248596191,-77.614692687988281,0.31490924954414368,-0.23955927789211273,-39.195655822753906,0.0023300000466406345,-0.00027000904083251953,-9.8099889755249023,-0.0014498875243589282,8
-0.45414352416992188,-78.045372009277344,0.29287084937095642,-0.0029052041936665773,-39.302108764648438,0.010017911903560162,0.003830739064142108,-9.8104467391967773,-0.002475259592756629,8
0.49737849831581116,-78.045669555664062,0.29171386361122131,0.01328567136079073,-39.302192687988281,0.0098624806851148605,-0.0040112435817718506,-9.8104467391967773,-0.0023998224642127752,8
1.6239414215087891,-77.616500854492188,0.31496453285217285,0.23942236602306366,-39.196308135986328,0.0023426827974617481,0.0002574920654296875,-9.8098745346069336,-0.0014524789294227958,8
2.975461483001709,-77.333892822265625,0.3920769989490509,0.51091766357421875,-39.116600036621094,0.011990324594080448,0.0033581254538148642,-9.8058691024780273,-0.0039735808968544006,8
-2.9332752227783203,-77.326812744140625,0.67377084493637085,-0.5109373927116394,-39.115741729736328,0.019051646813750267,-0.0036174056585878134,-9.8059835433959961,-0.0063149253837764263,8
-1.7214807271957397,-77.581764221191406,0.54662007093429565,-0.24117174744606018,-39.1951904296875,0.0035490337759256363,0.0015677510527893901,-9.8104467391967773,-0.0022652300540357828,8
-0.48846942186355591,-78.019989013671875,0.52452683448791504,-0.0028204326517879963,-39.301486968994141,0.013098441995680332,0.0040141423232853413,-9.8111333847045898,-0.0041534285992383957,8
-0.25705593824386597,-78.045120239257812,0.49746209383010864,0.000147504877531901,-39.302181243896484,0.013261922635138035,0.0023673428222537041,-9.8104467391967773,-0.0040083937346935272,8
-0.067790769040584564,-78.070510864257812,0.47372293472290039,0.0036266462411731482,-39.302570343017578,0.013799277134239674,0.00063834473257884383,-9.8101034164428711,-0.0041236728429794312,8
0.10140575468540192,-78.070899963378906,0.47380366921424866,0.006247284822165966,-39.302570343017578,0.013815744780004025,-0.00062414439162239432,-9.8101034164428711,-0.0041284225881099701,8
0.29173779487609863,-78.045669555664062,0.49736091494560242,0.0098675442859530449,-39.302192687988281,0.013280532322824001,-0.0024012473877519369,-9.8104467391967773,-0.0040099024772644043,8
0.5231548547744751,-78.02081298828125,0.52313023805618286,0.012959199026226997,-39.301597595214844,0.012953545898199081,-0.0040679890662431717,-9.8111333847045898,-0.0040663965046405792,8
1.7215949296951294,-77.583259582519531,0.54666203260421753,0.24107080698013306,-39.195823669433594,0.0035613009240478277,-0.0016151367453858256,-9.8104467391967773,-0.0022667527664452791,8
2.9333169460296631,-77.326812744140625,0.67377102375030518,0.51095235347747803,-39.115745544433594,0.019052030518651009,0.0036174056585878134,-9.8059835433959961,-0.0063148695044219494,8
-2.3016548156738281,-77.275382995605469,1.6511311531066895,-0.33463576436042786,-39.104190826416016,0.24618099629878998,-0.0038355586584657431,-9.8059835433959961,-0.0007139145745895803,8
-1.8591395616531372,-77.294731140136719,1.8591334819793701,-0.28431001305580139,-39.109596252441406,0.28430905938148499,-0.0016048549441620708,-9.8049535751342773,0.0016039608744904399,8
-0.54585450887680054,-77.583206176757812,1.7217259407043457,-0.0032419115304946899,-39.195816040039062,0.241087406873703,0.0022750229109078646,-9.8104467391967773,-0.0016258655814453959,8
-0.3139626681804657,-77.616432189941406,1.6240742206573486,-0.0020156630780547857,-39.196304321289062,0.23943328857421875,0.0014504323480650783,-9.8099889755249023,0.00025078654289245605,8
-0.10115038603544235,-77.636367797851562,1.5725399255752563,-0.00054408324649557471,-39.196670532226562,0.23834978044033051,0.00046514495625160635,-9.8094167709350586,0.0019168852595612407,8
0.10238964855670929,-77.636405944824219,1.572465181350708,0.00087904627434909344,-39.196670532226562,0.23834607005119324,-0.00048405837151221931,-9.8094167709350586,0.0019177793292328715,8
0.31495958566665649,-77.616508483886719,1.6239384412765503,0.0023418918717652559,-39.196308135986328,0.23942114412784576,-0.0014524719445034862,-9.8098745346069336,0.0002574920654296875,8
0.54665601253509521,-77.583259582519531,1.721588134765625,0.0035604685544967651,-39.195823669433594,0.24106962978839874,-0.0022667108569294214,-9.8104467391967773,-0.0016151367453858256,8
1.8591572046279907,-77.294731140136719,1.8591471910476685,0.28432115912437439,-39.109592437744141,0.28431838750839233,0.0016066430835053325,-9.8049535751342773,0.0016066430835053325,8
2.3016729354858398,-77.275382995605469,1.6511354446411133,0.33464214205741882,-39.104190826416016,0.24618320167064667,0.0038337705191224813,-9.8059835433959961,-0.0007139145745895803,8
-2.0516636371612549,-77.267547607421875,2.051659107208252,-0.28736558556556702,-39.104358673095703,0.28736424446105957,-0.00039160248707048595,-9.8063268661499023,0.00039160248707048595,8
-1.6511218547821045,-77.275382995605469,2.301666259765625,-0.2461777925491333,-39.104190826416016,0.33464017510414124,0.0007139145745895803,-9.8059835433959961,0.0038346645887941122,8
-0.67375743389129639,-77.326812744140625,2.9333083629608154,-0.019046878442168236,-39.115745544433594,0.51094990968704224,0.0063149812631309032,-9.8059835433959961,0.0036174056585878134,8
-0.39206337928771973,-77.333900451660156,2.9754478931427002,-0.011984977871179581,-39.116600036621094,0.51091504096984863,0.0039736926555633545,-9.8057546615600586,0.0033581254538148642,8
-0.12853313982486725,-77.336822509765625,2.9934930801391602,-0.0039374139159917831,-39.117015838623047,0.51096534729003906,0.0013482709182426333,-9.8056402206420898,0.0031507012899965048,8
0.1285443902015686,-77.336822509765625,2.9934945106506348,0.003942546434700489,-39.117015838623047,0.51096564531326294,-0.0013479915214702487,-9.8056402206420898,0.0031507012899965048,8
0.39207538962364197,-77.333900451660156,2.9754517078399658,0.011990253813564777,-39.116600036621094,0.51091569662094116,-0.0039734970778226852,-9.8057546615600586,0.0033581254538148642,8
0.67377030849456787,-77.326812744140625,2.9333131313323975,0.01905200257897377,-39.115745544433594,0.51095074415206909,-0.0063148695044219494,-9.8059835433959961,0.0036174056585878134,8
1.6511311531066895,-77.275382995605469,2.3016798496246338,0.24618126451969147,-39.104190826416016,0.33464410901069641,-0.0007139145745895803,-9.8059835433959961,0.0038355586584657431,8
2.0516788959503174,-77.267539978027344,2.0516693592071533,0.28737470507621765,-39.104354858398438,0.28737196326255798,0.00039428469608537853,-9.8063268661499023,0.00039428469608537853,8
-2.1025903224945068,-77.014923095703125,-2.1025750637054443,-0.29371625185012817,-39.09228515625,-0.29371172189712524,0.001774728181771934,-9.8095312118530273,0.001774728181771934,8
-1.6652102470397949,-77.030166625976562,-2.3875486850738525,-0.24422989785671234,-39.094890594482422,-0.34698840975761414,0.00051811337471008301,-9.8087301254272461,0.00014752148126717657,8
-0.69601452350616455,-77.090652465820312,-3.0088801383972168,-0.022286796942353249,-39.106746673583984,-0.51913285255432129,0.0070164906792342663,-9.8088445663452148,-0.00077605241676792502,8
-0.40425765514373779,-77.105735778808594,-3.0520689487457275,-0.013821009546518326,-39.108688354492188,-0.51861071586608887,0.004380885511636734,-9.8083868026733398,-0.00055611133575439453,8
-0.13155905902385712,-77.113906860351562,-3.0681815147399902,-0.0043606441468000412,-39.109840393066406,-0.51823818683624268,0.0014738597674295306,-9.8080434799194336,-0.00042736527393572032,8
0.13157601654529572,-77.113906860351562,-3.0681800842285156,0.0043668295256793499,-39.109840393066406,-0.518238365650177,-0.0014738877071067691,-9.8080434799194336,-0.00042736527393572032,8
0.40427446365356445,-77.105735778808594,-3.0520699024200439,0.013827049173414707,-39.108688354492188,-0.51861131191253662,-0.0043809693306684494,-9.8083868026733398,-0.00055611133575439453,8
0.69603121280670166,-77.090652465820312,-3.008882999420166,0.022292396053671837,-39.106746673583984,-0.5191338062286377,-0.007016714196652174,-9.8088445663452148,-0.00077426427742466331,8
1.6652140617370605,-77.030166625976562,-2.3875527381896973,0.24423225224018097,-39.094890594482422,-0.34699118137359619,-0.00051811337471008301,-9.8087301254272461,0.00014662741159554571,8
2.1025927066802979,-77.014923095703125,-2.1025815010070801,0.29371979832649231,-39.09228515625,-0.29371526837348938,-0.0017729400424286723,-9.8095312118530273,0.0017729400424286723,8
-2.3875417709350586,-77.030166625976562,-1.6652145385742188,-0.34698620438575745,-39.094890594482422,-0.24423186480998993,0.00014662741159554571,-9.8087301254272461,0.00051811337471008301,8
-1.9277786016464233,-77.042556762695312,-1.9277603626251221,-0.29118639230728149,-39.097267150878906,-0.29118189215660095,0.0010272860527038574,-9.8085012435913086,0.0010272860527038574,8
-0.605418860912323,-77.354438781738281,-1.968345046043396,-0.0059929406270384789,-39.193225860595703,-0.24933628737926483,0.0035487019922584295,-9.8121633529663086,0.0078713893890380859,8
-0.34206870198249817,-77.411293029785156,-1.8328577280044556,-0.0030567862559109926,-39.194679260253906,-0.24355499446392059,0.0020785164088010788,-9.8107900619506836,0.0035163757856935263,8
-0.10921803861856461,-77.443138122558594,-1.7612404823303223,-0.0008288166718557477,-39.195159912109375,-0.24182696640491486,0.00064823188586160541,-9.8104467391967773,0.0017702578334137797,8
0.11021601408720016,-77.443161010742188,-1.7612111568450928,0.001136401086114347,-39.195163726806641,-0.24182377755641937,-0.00065209105378016829,-9.8104467391967773,0.0017689167289063334,8
0.34288951754570007,-77.411346435546875,-1.8327676057815552,0.0033559578005224466,-39.194686889648438,-0.24354229867458344,-0.0020732148550450802,-9.8107900619506836,0.0035110113676637411,8
0.60605090856552124,-77.354515075683594,-1.9681921005249023,0.0062712724320590496,-39.193241119384766,-0.24929660558700562,-0.0035324969794601202,-9.8121633529663086,0.0078593194484710693,8
1.9277821779251099,-77.042572021484375,-1.9277679920196533,0.29119029641151428,-39.097267150878906,-0.29118546843528748,-0.0010272860527038574,-9.8083868026733398,0.0010272860527038574,8
2.3875494003295898,-77.030166625976562,-1.665217399597168,0.34698975086212158,-39.094890594482422,-0.24423335492610931,-0.00014662741159554571,-9.8087301254272461,0.00051811337471008301,8
-3.0088691711425781,-77.090652465820312,-0.69601213932037354,-0.51912987232208252,-39.106746673583984,-0.022286148741841316,-0.00077605241676792502,-9.8088445663452148,0.0070165465585887432,8
-1.9683588743209839,-77.354438781738281,-0.60541671514511108,-0.24933905899524689,-39.193225860595703,-0.0059927990660071373,0.0078713893890380859,-9.8121633529663086,0.0035487019922584295,8
-0.59851706027984619,-77.833152770996094,-0.59850603342056274,-0.0044113826006650925,-39.300247192382812,-0.0044098352082073689,0.0051223901100456715,-9.8121633529663086,0.0051211467944085598,8
-0.32598114013671875,-77.8634033203125,-0.61216914653778076,-0.0014594177482649684,-39.300640106201172,-0.0045329565182328224,0.003419205080717802,-9.8118200302124023,0.0050398283638060093,8
-0.085211731493473053,-77.889991760253906,-0.59824967384338379,0.0032862443476915359,-39.300888061523438,-0.0046731061302125454,0.00091568095376715064,-9.8114767074584961,0.0049592223949730396,8
0.11357729882001877,-77.890190124511719,-0.59821563959121704,0.0065111867152154446,-39.300907135009766,-0.0046779564581811428,-0.00085178291192278266,-9.8114767074584961,0.0049578533507883549,8
0.35503926873207092,-77.864006042480469,-0.61188554763793945,0.011457932181656361,-39.30072021484375,-0.0045007942244410515,-0.0034061537589877844,-9.8118200302124023,0.005013634916394949,8
0.6270148754119873,-77.8338623046875,-0.59778362512588501,0.014474066905677319,-39.300380706787109,-0.0043280944228172302,-0.0051136869005858898,-9.8121633529663086,0.0050633116625249386,8
1.9685729742050171,-77.355628967285156,-0.6054377555847168,0.24932014942169189,-39.19378662109375,-0.0059974156320095062,-0.0079272687435150146,-9.8121633529663086,0.0035507695283740759,8
3.0089101791381836,-77.090667724609375,-0.69601351022720337,0.51914381980895996,-39.106754302978516,-0.022286908701062202,0.00077426427742466331,-9.8088445663452148,0.0070165465585887432,8
-3.0520591735839844,-77.105735778808594,-0.40425631403923035,-0.51860779523849487,-39.108688354492188,-0.013820660300552845,-0.00055611133575439453,-9.8083868026733398,0.0043809413909912109,8
-1.8328635692596436,-77.411293029785156,-0.34206739068031311,-0.24355626106262207,-39.194679260253906,-0.0030562130268663168,0.0035163757856935263,-9.8107900619506836,0.0020785792730748653,8
-0.61218380928039551,-77.8634033203125,-0.32597211003303528,-0.0045341807417571545,-39.300640106201172,-0.0014583443989977241,0.0050410437397658825,-9.8118200302124023,0.003418059553951025,8
-0.31719142198562622,-77.869949340820312,-0.31718218326568604,-0.001320740906521678,-39.301071166992188,-0.0013200215762481093,0.0031937214080244303,-9.8112478256225586,0.0031926841475069523,8
-0.091044396162033081,-77.891098022460938,-0.31126216053962708,0.0031303917057812214,-39.301025390625,-0.0014628720236942172,0.00093902455409988761,-9.8111333847045898,0.0031693719793111086,8
0.12009351700544357,-77.891250610351562,-0.31130620837211609,0.006555918138474226,-39.301040649414062,-0.0014876693021506071,-0.00083791086217388511,-9.8111333847045898,0.0031767864711582661,8
0.34969154000282288,-77.870124816894531,-0.31742852926254272,0.011411773972213268,-39.301128387451172,-0.0013380554737523198,-0.0032425669487565756,-9.8112478256225586,0.0031989077106118202,8
0.64425021409988403,-77.863967895507812,-0.32523655891418457,0.014663061127066612,-39.300819396972656,-0.0013530456926673651,-0.0050753536634147167,-9.8118200302124023,0.0033505503088235855,8
1.8330382108688354,-77.412765502929688,-0.34208652377128601,0.24347484111785889,-39.195297241210938,-0.0030517526902258396,-0.0035655496176332235,-9.8107900619506836,0.0020811776630580425,8
3.0521001815795898,-77.105758666992188,-0.40425845980644226,0.51862138509750366,-39.108695983886719,-0.013821424916386604,0.00055432319641113281,-9.8083868026733398,0.0043809693306684494,8
-3.0681700706481934,-77.113906860351562,-0.13155879080295563,-0.51823514699935913,-39.109840393066406,-0.00436044717207551,-0.00042557713459245861,-9.8080434799194336,0.0014738597674295306,8
-1.7612448930740356,-77.443138122558594,-0.10921578854322433,-0.2418278306722641,-39.195159912109375,-0.00082818535156548023,0.0017702578334137797,-9.8104467391967773,0.00064824585570022464,8
-0.59825986623764038,-77.889991760253906,-0.085203789174556732,-0.0046736574731767178,-39.300888061523438,0.0032865521498024464,0.004960270132869482,-9.8114767074584961,0.00091464718570932746,8
-0.31127211451530457,-77.891090393066406,-0.091038048267364502,-0.0014630100922659039,-39.301025390625,0.0031302710995078087,0.0031701996922492981,-9.8111333847045898,0.00093818636378273368,8
-0.075195297598838806,-77.902214050292969,-0.075190320611000061,0.003522086888551712,-39.300312042236328,0.0035211008507758379,0.00075407786061987281,-9.8114767074584961,0.00075360987102612853,8
0.1023307591676712,-77.902168273925781,-0.075210012495517731,0.0058509013615548611,-39.300304412841797,0.0035136884544044733,-0.00052329618483781815,-9.8114767074584961,0.00075704645132645965,8
0.34584420919418335,-77.890640258789062,-0.091246969997882843,0.01156991720199585,-39.301048278808594,0.0031159077771008015,-0.0032337380107492208,-9.8111333847045898,0.00094698736211284995,8
0.63358491659164429,-77.89007568359375,-0.085122689604759216,0.014844830147922039,-39.301082611083984,0.0032899924553930759,-0.0050292531959712505,-9.8114767074584961,0.00090608367463573813,8
1.7613826990127563,-77.444847106933594,-0.10921169817447662,0.24171863496303558,-39.195789337158203,-0.00082032079808413982,-0.0017997621325775981,-9.8104467391967773,0.00064957822905853391,8
3.0682129859924316,-77.113914489746094,-0.13156011700630188,0.5182499885559082,-39.109844207763672,-0.0043609626591205597,0.00042557713459245861,-9.8080434799194336,0.0014738877071067691,8
-3.0681712627410889,-77.113906860351562,0.13157588243484497,-0.51823526620864868,-39.109840393066406,0.0043668597936630249,-0.00042557713459245861,-9.8080434799194336,-0.0014738597674295306,8
-1.7612115144729614,-77.443161010742188,0.11021771281957626,-0.24182452261447906,-39.195163726806641,0.001137049519456923,0.0017689167289063334,-9.8104467391967773,-0.00065205612918362021,8
-0.59822386503219604,-77.890190124511719,0.11358139663934708,-0.0046780360862612724,-39.300907135009766,0.0065108416602015495,0.004958705510944128,-9.8114767074584961,-0.00085264904191717505,8
-0.31131431460380554,-77.891242980957031,0.12009746581315994,-0.0014872776810079813,-39.301040649414062,0.0065550468862056732,0.0031773732043802738,-9.8111333847045898,-0.00083855347475036979,8
-0.075212404131889343,-77.902168273925781,0.10233358293771744,0.0035151091869920492,-39.300304412841797,0.0058494419790804386,0.00075728393858298659,-9.8114767074584961,-0.00052360352128744125,8
0.10232540220022202,-77.902130126953125,0.10232658684253693,0.0058535328134894371,-39.300296783447266,0.005851654801517725,-0.00052426010370254517,-9.8114767074584961,-0.00052431598305702209,8
0.34595519304275513,-77.89093017578125,0.11993624269962311,0.011589730158448219,-39.301055908203125,0.0065381843596696854,-0.0032384039368480444,-9.8111333847045898,-0.00082884443691000342,8
0.63319450616836548,-77.890525817871094,0.11321274936199188,0.014838102273643017,-39.301094055175781,0.0064618056640028954,-0.0050211506895720959,-9.8114767074584961,-0.00082065811147913337,8
1.7613497972488403,-77.444877624511719,0.1102541908621788,0.24171541631221771,-39.195793151855469,0.0011483549606055021,-0.0017984210280701518,-9.8104467391967773,-0.00065302703296765685,8
3.0682141780853271,-77.113914489746094,0.1315748542547226,0.5182502269744873,-39.109844207763672,0.0043666809797286987,0.00042557713459245861,-9.8080434799194336,-0.001473943586461246,8
-3.0520627498626709,-77.105735778808594,0.40427488088607788,-0.51860815286636353,-39.108688354492188,0.013827209360897541,-0.00055611133575439453,-9.8083868026733398,-0.0043809693306684494,8
-1.8327689170837402,-77.411346435546875,0.34289267659187317,-0.24354308843612671,-39.194686889648438,0.0033566856291145086,0.0035110113676637411,-9.8107900619506836,-0.0020732567645609379,8
-0.61189413070678711,-77.864006042480469,0.35504066944122314,-0.0045002186670899391,-39.30072021484375,0.01145665068179369,0.0050142076797783375,-9.8118200302124023,-0.003406852250918746,8
-0.31743264198303223,-77.870124816894531,0.34969255328178406,-0.001336781308054924,-39.301128387451172,0.011409776285290718,0.0031991102732717991,-9.8112478256225586,-0.0032429301645606756,8
-0.091243982315063477,-77.890640258789062,0.34584388136863708,0.0031185040716081858,-39.301048278808594,0.011567056179046631,0.00094665208598598838,-9.8111333847045898,-0.0032335983123630285,8
0.11994267255067825,-77.89093017578125,0.34594866633415222,0.0065415650606155396,-39.301055908203125,0.011586089618504047,-0.00082950101932510734,-9.8111333847045898,-0.0032378730829805136,8
0.34955263137817383,-77.870307922363281,0.34954088926315308,0.011395268142223358,-39.301162719726562,0.011390659026801586,-0.0032316704746335745,-9.8112478256225586,-0.0032306367065757513,8
0.64361906051635742,-77.864601135253906,0.35368573665618896,0.01459844596683979,-39.300884246826172,0.011283456347882748,-0.0050322986207902431,-9.8117055892944336,-0.0033087001647800207,8
1.8329535722732544,-77.412818908691406,0.34294384717941284,0.24346184730529785,-39.195304870605469,0.0033704224042594433,-0.0035601851996034384,-9.8107900619506836,-0.0020744162611663342,8
3.0521039962768555,-77.105758666992188,0.40427502989768982,0.51862210035324097,-39.108695983886719,0.013827363029122353,0.00055432319641113281,-9.8083868026733398,-0.0043811090290546417,8
-3.0088684558868408,-77.090652465820312,0.69603222608566284,-0.51913046836853027,-39.106746673583984,0.022292936220765114,-0.00077426427742466331,-9.8088445663452148,-0.0070167700760066509,8
-1.9682010412216187,-77.354515075683594,0.60605663061141968,-0.24929851293563843,-39.193241119384766,0.0062724482268095016,0.0078593194484710693,-9.8121633529663086,-0.0035326227080076933,8
-0.59778666496276855,-77.8338623046875,0.62701416015625,-0.0043270853348076344,-39.300380706787109,0.01447224710136652,0.0050637028180062771,-9.8121633529663086,-0.0051142736338078976,8
-0.32523557543754578,-77.863983154296875,0.64424973726272583,-0.0013511058641597629,-39.300819396972656,0.014660491608083248,0.0033504560124129057,-9.8118200302124023,-0.005075493361800909,8
-0.085118398070335388,-77.890083312988281,0.63358509540557861,0.0032931945752352476,-39.301082611083984,0.01484124269336462,0.0009054620168171823,-9.8114767074584961,-0.0050288341008126736,8
0.11322306841611862,-77.890533447265625,0.63318908214569092,0.00646582106128335,-39.301094055175781,0.014833807945251465,-0.00082162203034386039,-9.8114767074584961,-0.0050203963182866573,8
0.35370025038719177,-77.864601135253906,0.64360547065734863,0.011288616806268692,-39.300884246826172,0.014593219384551048,-0.0033099853899329901,-9.8117055892944336,-0.0050310413353145123,8
0.62597149610519409,-77.834457397460938,0.62595832347869873,0.014343554154038429,-39.300510406494141,0.014337871223688126,-0.0050327177159488201,-9.8121633529663086,-0.0050312927924096584,8
1.9684171676635742,-77.355697631835938,0.60610181093215942,0.24927835166454315,-39.193805694580078,0.0062927263788878918,-0.0079156458377838135,-9.8121633529663086,-0.0035325109492987394,8
3.0089137554168701,-77.090667724609375,0.69603252410888672,0.51914477348327637,-39.10675048828125,0.022293154150247574,0.00077247613808140159,-9.8087301254272461,-0.0070167700760066509,8
-2.3875420093536377,-77.030166625976562,1.6652159690856934,-0.34698757529258728,-39.094890594482422,0.24423302710056305,0.00014662741159554571,-9.8087301254272461,-0.00051811337471008301,8
-1.9277759790420532,-77.042572021484375,1.9277677536010742,-0.29118767380714417,-39.097263336181641,0.2911858856678009,0.0010272860527038574,-9.8083868026733398,-0.0010272860527038574,8
-0.60544395446777344,-77.355628967285156,1.9685801267623901,-0.0059988559223711491,-39.19378662109375,0.24932131171226501,0.0035508393775671721,-9.8121633529663086,-0.0079277157783508301,8
-0.34208917617797852,-77.412765502929688,1.8330363035202026,-0.0030526469927281141,-39.195297241210938,0.24347434937953949,0.0020811916328966618,-9.8107900619506836,-0.0035655496176332235,8
-0.10921400040388107,-77.444862365722656,1.7613744735717773,-0.00082103029126301408,-39.195789337158203,0.2417176216840744,0.00064956076676025987,-9.8104467391967773,-0.0017997621325775981,8
0.11025221645832062,-77.444877624511719,1.7613457441329956,0.0011476450599730015,-39.195793151855469,0.24171444773674011,-0.00065303751034662127,-9.8104467391967773,-0.0017984210280701518,8
0.34293991327285767,-77.412818908691406,1.8329458236694336,0.0033696384634822607,-39.195304870605469,0.24346089363098145,-0.0020743533968925476,-9.8107900619506836,-0.0035597381647676229,8
0.60609978437423706,-77.355690002441406,1.9684194326400757,0.0062925289385020733,-39.193801879882812,0.24927903711795807,-0.0035324690397828817,-9.8121633529663086,-0.0079165399074554443,8
1.9277863502502441,-77.042564392089844,1.9277739524841309,0.29119473695755005,-39.097263336181641,0.29119202494621277,-0.0010219216346740723,-9.8085012435913086,-0.0010219216346740723,8
2.3875536918640137,-77.030166625976562,1.6652179956436157,0.34699264168739319,-39.094890594482422,0.24423480033874512,-0.00014662741159554571,-9.8087301254272461,-0.00051766633987426758,8
-2.1025879383087158,-77.014923095703125,2.1025793552398682,-0.29371756315231323,-39.09228515625,0.29371550679206848,0.0017729400424286723,-9.8096456527709961,-0.0017729400424286723,8
-1.6652096509933472,-77.030166625976562,2.3875517845153809,-0.24423028528690338,-39.094890594482422,0.34699144959449768,0.00051811337471008301,-9.8087301254272461,-0.00014662741159554571,8
-0.69601631164550781,-77.090667724609375,3.0089030265808105,-0.02228759229183197,-39.10675048828125,0.51914209127426147,0.0070166024379432201,-9.8087301254272461,0.00077426427742466331,8
-0.40425810217857361,-77.105766296386719,3.0520918369293213,-0.01382147055119276,-39.108695983886719,0.51861929893493652,0.0043809693306684494,-9.8083868026733398,0.00055432319641113281,8
-0.13155961036682129,-77.113929748535156,3.068204402923584,-0.0043608676642179489,-39.109848022460938,0.51824784278869629,0.0014739296166226268,-9.8080434799194336,0.00042378899524919689,8
0.13157521188259125,-77.113929748535156,3.0682051181793213,0.0043668802827596664,-39.109848022460938,0.51824808120727539,-0.0014739296166226268,-9.8080434799194336,0.00042378899524919689,8
0.404274582862854,-77.105758666992188,3.0520961284637451,0.013827492482960224,-39.108695983886719,0.51862066984176636,-0.0043810531497001648,-9.8083868026733398,0.00055432319641113281,8
0.69603258371353149,-77.090667724609375,3.0089101791381836,0.022293210029602051,-39.106754302978516,0.51914346218109131,-0.0070167700760066509,-9.8088445663452148,0.00077247613808140159,8
1.6652135848999023,-77.030166625976562,2.3875579833984375,0.24423275887966156,-39.094890594482422,0.34699440002441406,-0.00051766633987426758,-9.8087301254272461,-0.00014573334192391485,8
2.1025955677032471,-77.014923095703125,2.1025850772857666,0.29372301697731018,-39.092281341552734,0.2937203049659729,-0.0017702578334137797,-9.8095312118530273,-0.0017702578334137797,8
-2.141869068145752,-76.7584228515625,-2.1418514251708984,-0.29936939477920532,-39.079750061035156,-0.29936489462852478,0.0030872223433107138,-9.8125066757202148,0.0030872223433107138,8
-1.6645724773406982,-76.776092529296875,-2.4756367206573486,-0.24176934361457825,-39.083621978759766,-0.36086827516555786,0.00013142824172973633,-9.8114767074584961,0.0034627316053956747,8
-0.7239539623260498,-76.841484069824219,-3.0806682109832764,-0.025344647467136383,-39.098407745361328,-0.52598631381988525,0.0078812241554260254,-9.8121633529663086,0.0017863510875031352,8
-0.42309951782226562,-76.861419677734375,-3.1333596706390381,-0.016028290614485741,-39.100700378417969,-0.52573484182357788,0.0050579751841723919,-9.8114767074584961,0.0023639199789613485,8
-0.13741858303546906,-76.8736572265625,-3.1542472839355469,-0.0049025490880012512,-39.102157592773438,-0.52553087472915649,0.0017406278057023883,-9.8111333847045898,0.0026589629705995321,8
0.13743670284748077,-76.8736572265625,-3.1542477607727051,0.004909103736281395,-39.102157592773438,-0.52553105354309082,-0.0017407535342499614,-9.8111333847045898,0.0026589629705995321,8
0.4231182336807251,-76.861419677734375,-3.1333611011505127,0.016034727916121483,-39.100700378417969,-0.52573537826538086,-0.0050581987015902996,-9.8114767074584961,0.0023639199789613485,8
0.72397208213806152,-76.841484069824219,-3.0806710720062256,0.025350460782647133,-39.098407745361328,-0.52598714828491211,-0.00788150355219841,-9.8121633529663086,0.0017863510875031352,8
1.6645755767822266,-76.776092529296875,-2.4756383895874023,0.24177125096321106,-39.083625793457031,-0.36086955666542053,-0.00013142824172973633,-9.8114767074584961,0.0034618375357240438,8
2.1418693065643311,-76.7584228515625,-2.141857385635376,0.29937121272087097,-39.079750061035156,-0.29936733841896057,-0.0030845401342958212,-9.8125066757202148,0.0030845401342958212,8
-2.475628137588501,-76.776092529296875,-1.664578914642334,-0.36086532473564148,-39.083625793457031,-0.24177147448062897,0.0034627316053956747,-9.8114767074584961,0.00013142824172973633,8
-1.985603928565979,-76.777099609375,-1.9855859279632568,-0.29803848266601562,-39.082855224609375,-0.2980339527130127,0.0027814505156129599,-9.8118200302124023,0.0027814505156129599,8
-0.72965514659881592,-76.880584716796875,-2.7878966331481934,-0.025510145351290703,-39.098453521728516,-0.52639329433441162,0.0080590322613716125,-9.8121633529663086,0.0023066995199769735,8
-0.41984927654266357,-76.923446655273438,-2.8061392307281494,-0.015378545038402081,-39.101146697998047,-0.52607840299606323,0.0051337755285203457,-9.8114767074584961,0.0029432771261781454,8
-0.13475584983825684,-76.947860717773438,-2.8097443580627441,-0.004590056836605072,-39.102344512939453,-0.52605599164962769,0.0017171724466606975,-9.8111333847045898,0.0033223626669496298,8
0.13480480015277863,-76.947860717773438,-2.8097467422485352,0.004597875289618969,-39.102344512939453,-0.52605605125427246,-0.0017181782750412822,-9.8111333847045898,0.0033241508062928915,8
0.41989287734031677,-76.923446655273438,-2.8061459064483643,0.015385926701128483,-39.101146697998047,-0.52607864141464233,-0.0051346695981919765,-9.8114767074584961,0.0029450652655214071,8
0.72968655824661255,-76.880592346191406,-2.7879002094268799,0.02551574818789959,-39.098453521728516,-0.52639394998550415,-0.0080595351755619049,-9.8121633529663086,0.0023066995199769735,8
1.9856030941009521,-76.777099609375,-1.9855934381484985,0.2980409562587738,-39.082855224609375,-0.29803690314292908,-0.0027787683065980673,-9.8118200302124023,0.0027787683065980673,8
2.4756317138671875,-76.776092529296875,-1.6645808219909668,0.36086761951446533,-39.083625793457031,-0.24177269637584686,-0.0034618375357240438,-9.8114767074584961,0.00013142824172973633,8
-3.0806584358215332,-76.841484069824219,-0.72395074367523193,-0.52598333358764648,-39.098407745361328,-0.025343786925077438,0.0017863510875031352,-9.8121633529663086,0.0078813359141349792,8
-2.7878923416137695,-76.880584716796875,-0.72965019941329956,-0.52639013528823853,-39.098453521728516,-0.025509113445878029,0.0023066995199769735,-9.8121633529663086,0.0080589763820171356,8
-0.98578530550003052,-77.426048278808594,-0.98577278852462769,-0.11759953945875168,-39.235786437988281,-0.11759847402572632,-0.00018976627325173467,-9.8101034164428711,-0.00018998979066964239,8
-0.46611696481704712,-77.488029479980469,-1.1286096572875977,-0.019464911893010139,-39.243156433105469,-0.15454974770545959,0.0047356630675494671,-9.8097600936889648,-0.0022110342979431152,8
-0.12101352214813232,-77.502220153808594,-1.1973999738693237,-0.0001494598836870864,-39.242225646972656,-0.16353851556777954,0.00085340125951915979,-9.8111333847045898,0.00091597432037815452,8
0.12625627219676971,-77.502250671386719,-1.1975204944610596,0.0015650644199922681,-39.242218017578125,-0.16356895864009857,-0.0010044628288596869,-9.8111333847045898,0.00091820949455723166,8
0.47489514946937561,-77.48809814453125,-1.1281838417053223,0.02268153615295887,-39.243156433105469,-0.15405984222888947,-0.0044773328118026257,-9.8097600936889648,-0.0020223855972290039,8
0.98970407247543335,-77.427093505859375,-0.98549723625183105,0.11872948706150055,-39.236106872558594,-0.1175026148557663,0.00021301208471413702,-9.8101034164428711,-0.00018641351198311895,8
2.7879519462585449,-76.880630493164062,-0.72965157032012939,0.52640068531036377,-39.098464965820312,-0.025509005412459373,-0.0023066995199769735,-9.8121633529663086,0.0080588646233081818,8
3.0806996822357178,-76.841506958007812,-0.72395217418670654,0.52599591016769409,-39.098415374755859,-0.025344341993331909,-0.0017881392268463969,-9.8121633529663086,0.00788150355219841,8
-3.1333484649658203,-76.861419677734375,-0.42309820652008057,-0.52573192119598389,-39.100700378417969,-0.016027865931391716,0.0023639199789613485,-9.8114767074584961,0.0050580869428813457,8
-2.8061339855194092,-76.923446655273438,-0.41984820365905762,-0.52607512474060059,-39.101150512695312,-0.015378218144178391,0.0029432771261781454,-9.8114767074584961,0.0051337196491658688,8
-1.1286371946334839,-77.488021850585938,-0.46609213948249817,-0.15456050634384155,-39.243152618408203,-0.019454725086688995,-0.002212822437286377,-9.8097600936889648,0.0047376188449561596,8
-0.45892506837844849,-77.657493591308594,-0.45891320705413818,-0.0043958425521850586,-39.300022125244141,-0.0043942802585661411,0.0050885970704257488,-9.8121633529663086,0.0050873537547886372,8
-0.10217534005641937,-77.693138122558594,-0.47257015109062195,0.0035891903098672628,-39.300453186035156,-0.0047048167325556278,0.00081507716095075011,-9.8118200302124023,0.0050296303816139698,8
0.12785303592681885,-77.693214416503906,-0.47261205315589905,0.0060790050774812698,-39.300464630126953,-0.004712346475571394,-0.00068533228477463126,-9.8118200302124023,0.0050291833467781544,8
0.48602810502052307,-77.657844543457031,-0.45868280529975891,0.014414933510124683,-39.300140380859375,-0.0043369466438889503,-0.0050543989054858685,-9.8121633529663086,0.0050467993132770061,8
1.1325728893280029,-77.490203857421875,-0.46457600593566895,0.1556658148765564,-39.243782043457031,-0.018814604729413986,0.0023666021879762411,-9.8097600936889648,0.0048079709522426128,8
2.8062007427215576,-76.923500061035156,-0.41985374689102173,0.52608495950698853,-39.101161956787109,-0.015379195101559162,-0.0029450652655214071,-9.8114767074584961,0.0051341387443244457,8
3.133389949798584,-76.861442565917969,-0.42310047149658203,0.5257449746131897,-39.1007080078125,-0.016028875485062599,-0.0023657081183046103,-9.8114767074584961,0.0050579751841723919,8
-3.154238224029541,-76.8736572265625,-0.13741761445999146,-0.52552789449691772,-39.102157592773438,-0.0049022464081645012,0.0026589629705995321,-9.8111333847045898,0.0017405858961865306,8
-2.8097386360168457,-76.947860717773438,-0.13475543260574341,-0.52605265378952026,-39.102348327636719,-0.0045897988602519035,0.0033223626669496298,-9.8111333847045898,0.0017171724466606975,8
-1.1974247694015503,-77.502204895019531,-0.1210138276219368,-0.16354633867740631,-39.242218017578125,-0.00015065466868691146,0.00091686839004978538,-9.8111333847045898,0.00085318251512944698,8
-0.47257837653160095,-77.693138122558594,-0.1021696999669075,-0.0047052842564880848,-39.300453186035156,0.0035893924068659544,0.0050307200290262699,-9.8118200302124023,0.00081408530240878463,8
-0.10653343051671982,-77.729095458984375,-0.10652866959571838,0.0033402240369468927,-39.300121307373047,0.0033394091296941042,0.00087581801926717162,-9.8114767074584961,0.00087528018048033118,8
0.13207970559597015,-77.729164123535156,-0.10650788247585297,0.0058996402658522129,-39.300117492675781,0.0033403069246560335,-0.00055863981833681464,-9.8114767074584961,0.0008751125424169004,8
0.50263833999633789,-77.693359375,-0.10218603909015656,0.014768305234611034,-39.300586700439453,0.0035779059398919344,-0.0050597633235156536,-9.8118200302124023,0.00081426691031083465,8
1.2019683122634888,-77.503532409667969,-0.12084842473268509,0.16482822597026825,-39.242542266845703,-0.00013482413487508893,-0.0010339915752410889,-9.8111333847045898,0.00084446795517578721,8
2.8098163604736328,-76.947906494140625,-0.13475878536701202,0.52606213092803955,-39.102359771728516,-0.0045905178412795067,-0.0033241508062928915,-9.8111333847045898,0.0017172003863379359,8
3.1542778015136719,-76.873680114746094,-0.13741916418075562,0.52554094791412354,-39.102165222167969,-0.0049027213826775551,-0.0026589629705995321,-9.8111333847045898,0.0017406417755410075,8
-3.1542398929595947,-76.8736572265625,0.13743531703948975,-0.5255279541015625,-39.102157592773438,0.0049089444801211357,0.0026589629705995321,-9.8111333847045898,-0.0017407116247341037,8
-2.8097410202026367,-76.947860717773438,0.1348029226064682,-0.52605265378952026,-39.102348327636719,0.0045976950787007809,0.0033223626669496298,-9.8111333847045898,-0.0017181503353640437,8
-1.1975494623184204,-77.502243041992188,0.12625229358673096,-0.16357685625553131,-39.242214202880859,0.0015643560327589512,0.00091955059906467795,-9.8111333847045898,-0.0010041799396276474,8
-0.47261431813240051,-77.693214416503906,0.12785390019416809,-0.0047124233096837997,-39.300464630126953,0.0060787093825638294,0.0050301053561270237,-9.8118200302124023,-0.00068615650525316596,8
-0.1065099686384201,-77.729164123535156,0.13208030164241791,0.0033415860962122679,-39.300117492675781,0.0058982186019420624,0.00087540590902790427,-9.8114767074584961,-0.00055896112462505698,8
0.1319914311170578,-77.729202270507812,0.13199092447757721,0.0058903112076222897,-39.30010986328125,0.0058884592726826668,-0.00055415555834770203,-9.8114767074584961,-0.00055419746786355972,8
0.50257009267807007,-77.693504333496094,0.12753142416477203,0.014768805354833603,-39.300594329833984,0.0060430094599723816,-0.0050554047338664532,-9.8118200302124023,-0.00066362315556034446,8
1.2021111249923706,-77.503532409667969,0.12619249522686005,0.16486078500747681,-39.242534637451172,0.0016011997358873487,-0.001039355993270874,-9.8111333847045898,-0.00098738470114767551,8
2.809821605682373,-76.947906494140625,0.13480257987976074,0.52606213092803955,-39.102359771728516,0.0045974738895893097,-0.0033223626669496298,-9.8111333847045898,-0.0017180525464937091,8
3.1542782783508301,-76.873680114746094,0.13743448257446289,0.52554106712341309,-39.102165222167969,0.0049086436629295349,-0.0026589629705995321,-9.8111333847045898,-0.0017407675040885806,8
-3.1333503723144531,-76.861419677734375,0.42311772704124451,-0.52573215961456299,-39.100700378417969,0.016034733504056931,0.0023639199789613485,-9.8114767074584961,-0.0050583104602992535,8
-2.8061368465423584,-76.923446655273438,0.41989287734031677,-0.52607530355453491,-39.101150512695312,0.015385988168418407,0.0029432771261781454,-9.8114767074584961,-0.0051346137188374996,8
-1.1282188892364502,-77.488090515136719,0.47487279772758484,-0.1540711373090744,-39.243152618408203,0.022671056911349297,-0.0020237267017364502,-9.8097600936889648,-0.0044790091924369335,8
-0.45868468284606934,-77.657844543457031,0.48602619767189026,-0.0043360679410398006,-39.300140380859375,0.014413150027394295,0.0050473022274672985,-9.8121633529663086,-0.0050550135783851147,8
-0.10217959433794022,-77.693359375,0.50263392925262451,0.0035813348367810249,-39.300586700439453,0.014764740131795406,0.00081366620725020766,-9.8118200302124023,-0.0050594001077115536,8
0.12753991782665253,-77.693511962890625,0.50256198644638062,0.0060469089075922966,-39.300594329833984,0.014764653518795967,-0.00066446134587749839,-9.8118200302124023,-0.0050547062419354916,8
0.48545697331428528,-77.658233642578125,0.48544678092002869,0.01430889219045639,-39.300251007080078,0.014303365722298622,-0.0049919257871806622,-9.8121633529663086,-0.0049906685017049313,8
1.1322429180145264,-77.490158081054688,0.47342601418495178,0.1552005410194397,-39.2437744140625,0.022052008658647537,0.0021672248840332031,-9.8097600936889648,-0.0045732217840850353,8
2.8062102794647217,-76.923500061035156,0.41989502310752869,0.52608519792556763,-39.101161956787109,0.01538605522364378,-0.0029450652655214071,-9.8114767074584961,-0.0051348931156098843,8
3.133392333984375,-76.861442565917969,0.42311820387840271,0.52574551105499268,-39.1007080078125,0.016035078093409538,-0.0023657081183046103,-9.8114767074584961,-0.0050582545809447765,8
-3.0806581974029541,-76.841484069824219,0.72397464513778687,-0.52598381042480469,-39.098407745361328,0.025351131334900856,0.0017863510875031352,-9.8121633529663086,-0.0078816153109073639,8
-2.7878916263580322,-76.880592346191406,0.72968941926956177,-0.52639031410217285,-39.098453521728516,0.025516320019960403,0.0023066995199769735,-9.8121633529663086,-0.0080595351755619049,8
-0.98551511764526367,-77.427093505859375,0.98970472812652588,-0.11750757694244385,-39.236103057861328,0.11872970312833786,-0.00018618999456521124,-9.8101034164428711,0.00021323560213204473,8
-0.464559406042099,-77.490203857421875,1.1325936317443848,-0.018806643784046173,-39.243782043457031,0.15567277371883392,0.0048087532632052898,-9.8097600936889648,0.0023670492228120565,8
-0.12084314227104187,-77.503532409667969,1.2019822597503662,-0.0001327978097833693,-39.242542266845703,0.16483320295810699,0.00084440509090200067,-9.8111333847045898,-0.0010339915752410889,8
0.12619768083095551,-77.503532409667969,1.2021235227584839,0.0016035402659326792,-39.242534637451172,0.16486565768718719,-0.00098744058050215244,-9.8111333847045898,-0.001039355993270874,8
0.47342023253440857,-77.490158081054688,1.1322581768035889,0.02204941026866436,-39.2437744140625,0.15520608425140381,-0.004574283491820097,-9.8097600936889648,0.0021685659885406494,8
0.98936760425567627,-77.42803955078125,0.98938053846359253,0.11862009018659592,-39.236392974853516,0.11862277239561081,0.00020943580602761358,-9.8101034164428711,0.00020921228860970587,8
2.7879550457000732,-76.880638122558594,0.72969090938568115,0.52640116214752197,-39.098464965820312,0.0255157221108675,-0.0023066995199769735,-9.8121633529663086,-0.0080595351755619049,8
3.0807020664215088,-76.841506958007812,0.72397327423095703,0.5259966254234314,-39.098415374755859,0.025350941345095634,-0.0017881392268463969,-9.8121633529663086,-0.0078816153109073639,8
