x,y,z,vx,vy,vz,ax,ay,az,mass
-0.90000003576278687,0.10000000149011612,-0.89999997615814209,0,0,0,0,0,0,8
-0.69999998807907104,0.10000000149011612,-0.89999997615814209,0,0,0,0,0,0,8
-0.5,0.10000000149011612,-0.89999997615814209,0,0,0,0,0,0,8
-0.30000001192092896,0.10000000149011612,-0.89999997615814209,0,0,0,0,0,0,8
-0.10000000149011612,0.10000000149011612,-0.89999997615814209,0,0,0,0,0,0,8
0.10000000149011612,0.10000000149011612,-0.89999997615814209,0,0,0,0,0,0,8
0.30000001192092896,0.10000000149011612,-0.89999997615814209,0,0,0,0,0,0,8
0.5,0.10000000149011612,-0.89999997615814209,0,0,0,0,0,0,8
0.69999998807907104,0.10000000149011612,-0.89999997615814209,0,0,0,0,0,0,8
0.90000003576278687,0.10000000149011612,-0.89999997615814209,0,0,0,0,0,0,8
-0.90000003576278687,0.10000000149011612,-0.69999998807907104,0,0,0,0,0,0,8
-0.69999998807907104,0.10000000149011612,-0.69999998807907104,0,0,0,0,0,0,8
-0.5,0.10000000149011612,-0.69999998807907104,0,0,0,0,0,0,8
-0.30000001192092896,0.10000000149011612,-0.69999998807907104,0,0,0,0,0,0,8
-0.10000000149011612,0.10000000149011612,-0.69999998807907104,0,0,0,0,0,0,8
0.10000000149011612,0.10000000149011612,-0.69999998807907104,0,0,0,0,0,0,8
0.30000001192092896,0.10000000149011612,-0.69999998807907104,0,0,0,0,0,0,8
0.5,0.10000000149011612,-0.69999998807907104,0,0,0,0,0,0,8
0.69999998807907104,0.10000000149011612,-0.69999998807907104,0,0,0,0,0,0,8
0.90000003576278687,0.10000000149011612,-0.69999998807907104,0,0,0,0,0,0,8
-0.90000003576278687,0.10000000149011612,-0.5,0,0,0,0,0,0,8
-0.69999998807907104,0.10000000149011612,-0.5,0,0,0,0,0,0,8
-0.5,0.10000000149011612,-0.5,0,0,0,0,0,0,8
-0.30000001192092896,0.10000000149011612,-0.5,0,0,0,0,0,0,8
-0.10000000149011612,0.10000000149011612,-0.5,0,0,0,0,0,0,8
0.10000000149011612,0.10000000149011612,-0.5,0,0,0,0,0,0,8
0.30000001192092896,0.10000000149011612,-0.5,0,0,0,0,0,0,8
0.5,0.10000000149011612,-0.5,0,0,0,0,0,0,8
0.69999998807907104,0.10000000149011612,-0.5,0,0,0,0,0,0,8
0.90000003576278687,0.10000000149011612,-0.5,0,0,0,0,0,0,8
-0.90000003576278687,0.10000000149011612,-0.30000001192092896,0,0,0,0,0,0,8
-0.69999998807907104,0.10000000149011612,-0.30000001192092896,0,0,0,0,0,0,8
-0.5,0.10000000149011612,-0.30000001192092896,0,0,0,0,0,0,8
-0.30000001192092896,0.10000000149011612,-0.30000001192092896,0,0,0,0,0,0,8
-0.10000000149011612,0.10000000149011612,-0.30000001192092896,0,0,0,0,0,0,8
0.10000000149011612,0.10000000149011612,-0.30000001192092896,0,0,0,0,0,0,8
0.30000001192092896,0.10000000149011612,-0.30000001192092896,0,0,0,0,0,0,8
0.5,0.10000000149011612,-0.30000001192092896,0,0,0,0,0,0,8
0.69999998807907104,0.10000000149011612,-0.30000001192092896,0,0,0,0,0,0,8
0.90000003576278687,0.10000000149011612,-0.30000001192092896,0,0,0,0,0,0,8
-0.90000003576278687,0.10000000149011612,-0.099999964237213135,0,0,0,0,0,0,8
-0.69999998807907104,0.10000000149011612,-0.099999964237213135,0,0,0,0,0,0,8
-0.5,0.10000000149011612,-0.099999964237213135,0,0,0,0,0,0,8
-0.30000001192092896,0.10000000149011612,-0.099999964237213135,0,0,0,0,0,0,8
-0.10000000149011612,0.10000000149011612,-0.099999964237213135,0,0,0,0,0,0,8
0.10000000149011612,0.10000000149011612,-0.099999964237213135,0,0,0,0,0,0,8
0.30000001192092896,0.10000000149011612,-0.099999964237213135,0,0,0,0,0,0,8
0.5,0.10000000149011612,-0.099999964237213135,0,0,0,0,0,0,8
0.69999998807907104,0.10000000149011612,-0.099999964237213135,0,0,0,0,0,0,8
0.90000003576278687,0.10000000149011612,-0.099999964237213135,0,0,0,0,0,0,8
-0.90000003576278687,0.10000000149011612,0.10000002384185791,0,0,0,0,0,0,8
-0.69999998807907104,0.10000000149011612,0.10000002384185791,0,0,0,0,0,0,8
-0.5,0.10000000149011612,0.10000002384185791,0,0,0,0,0,0,8
-0.30000001192092896,0.10000000149011612,0.10000002384185791,0,0,0,0,0,0,8
-0.10000000149011612,0.10000000149011612,0.10000002384185791,0,0,0,0,0,0,8
0.10000000149011612,0.10000000149011612,0.10000002384185791,0,0,0,0,0,0,8
0.30000001192092896,0.10000000149011612,0.10000002384185791,0,0,0,0,0,0,8
0.5,0.10000000149011612,0.10000002384185791,0,0,0,0,0,0,8
0.69999998807907104,0.10000000149011612,0.10000002384185791,0,0,0,0,0,0,8
0.90000003576278687,0.10000000149011612,0.10000002384185791,0,0,0,0,0,0,8
-0.90000003576278687,0.10000000149011612,0.30000007152557373,0,0,0,0,0,0,8
-0.69999998807907104,0.10000000149011612,0.30000007152557373,0,0,0,0,0,0,8
-0.5,0.10000000149011612,0.30000007152557373,0,0,0,0,0,0,8
-0.30000001192092896,0.10000000149011612,0.30000007152557373,0,0,0,0,0,0,8
-0.10000000149011612,0.10000000149011612,0.30000007152557373,0,0,0,0,0,0,8
0.10000000149011612,0.10000000149011612,0.30000007152557373,0,0,0,0,0,0,8
0.30000001192092896,0.10000000149011612,0.30000007152557373,0,0,0,0,0,0,8
0.5,0.10000000149011612,0.30000007152557373,0,0,0,0,0,0,8
0.69999998807907104,0.10000000149011612,0.30000007152557373,0,0,0,0,0,0,8
0.90000003576278687,0.10000000149011612,0.30000007152557373,0,0,0,0,0,0,8
-0.90000003576278687,0.10000000149011612,0.5,0,0,0,0,0,0,8
-0.69999998807907104,0.10000000149011612,0.5,0,0,0,0,0,0,8
-0.5,0.10000000149011612,0.5,0,0,0,0,0,0,8
-0.30000001192092896,0.10000000149011612,0.5,0,0,0,0,0,0,8
-0.10000000149011612,0.10000000149011612,0.5,0,0,0,0,0,0,8
0.10000000149011612,0.10000000149011612,0.5,0,0,0,0,0,0,8
0.30000001192092896,0.10000000149011612,0.5,0,0,0,0,0,0,8
0.5,0.10000000149011612,0.5,0,0,0,0,0,0,8
0.69999998807907104,0.10000000149011612,0.5,0,0,0,0,0,0,8
0.90000003576278687,0.10000000149011612,0.5,0,0,0,0,0,0,8
-0.90000003576278687,0.10000000149011612,0.70000004768371582,0,0,0,0,0,0,8
-0.69999998807907104,0.10000000149011612,0.70000004768371582,0,0,0,0,0,0,8
-0.5,0.10000000149011612,0.70000004768371582,0,0,0,0,0,0,8
-0.30000001192092896,0.10000000149011612,0.70000004768371582,0,0,0,0,0,0,8
-0.10000000149011612,0.10000000149011612,0.70000004768371582,0,0,0,0,0,0,8
0.10000000149011612,0.10000000149011612,0.70000004768371582,0,0,0,0,0,0,8
0.30000001192092896,0.10000000149011612,0.70000004768371582,0,0,0,0,0,0,8
0.5,0.10000000149011612,0.70000004768371582,0,0,0,0,0,0,8
0.69999998807907104,0.10000000149011612,0.70000004768371582,0,0,0,0,0,0,8
0.90000003576278687,0.10000000149011612,0.70000004768371582,0,0,0,0,0,0,8
-0.90000003576278687,0.10000000149011612,0.89999997615814209,0,0,0,0,0,0,8
-0.69999998807907104,0.10000000149011612,0.89999997615814209,0,0,0,0,0,0,8
-0.5,0.10000000149011612,0.89999997615814209,0,0,0,0,0,0,8
-0.30000001192092896,0.10000000149011612,0.89999997615814209,0,0,0,0,0,0,8
-0.10000000149011612,0.10000000149011612,0.89999997615814209,0,0,0,0,0,0,8
0.10000000149011612,0.10000000149011612,0.89999997615814209,0,0,0,0,0,0,8
0.30000001192092896,0.10000000149011612,0.89999997615814209,0,0,0,0,0,0,8
0.5,0.10000000149011612,0.89999997615814209,0,0,0,0,0,0,8
0.69999998807907104,0.10000000149011612,0.89999997615814209,0,0,0,0,0,0,8
0.90000003576278687,0.10000000149011612,0.89999997615814209,0,0,0,0,0,0,8
-0.90000003576278687,0.30000001192092896,-0.89999997615814209,0,0,0,0,0,0,8
-0.69999998807907104,0.30000001192092896,-0.89999997615814209,0,0,0,0,0,0,8
-0.5,0.30000001192092896,-0.89999997615814209,0,0,0,0,0,0,8
-0.30000001192092896,0.30000001192092896,-0.89999997615814209,0,0,0,0,0,0,8
-0.10000000149011612,0.30000001192092896,-0.89999997615814209,0,0,0,0,0,0,8
0.10000000149011612,0.30000001192092896,-0.89999997615814209,0,0,0,0,0,0,8
0.30000001192092896,0.30000001192092896,-0.89999997615814209,0,0,0,0,0,0,8
0.5,0.30000001192092896,-0.89999997615814209,0,0,0,0,0,0,8
0.69999998807907104,0.30000001192092896,-0.89999997615814209,0,0,0,0,0,0,8
0.90000003576278687,0.30000001192092896,-0.89999997615814209,0,0,0,0,0,0,8
-0.90000003576278687,0.30000001192092896,-0.69999998807907104,0,0,0,0,0,0,8
-0.69999998807907104,0.30000001192092896,-0.69999998807907104,0,0,0,0,0,0,8
-0.5,0.30000001192092896,-0.69999998807907104,0,0,0,0,0,0,8
-0.30000001192092896,0.30000001192092896,-0.69999998807907104,0,0,0,0,0,0,8
-0.10000000149011612,0.30000001192092896,-0.69999998807907104,0,0,0,0,0,0,8
0.10000000149011612,0.30000001192092896,-0.69999998807907104,0,0,0,0,0,0,8
0.30000001192092896,0.30000001192092896,-0.69999998807907104,0,0,0,0,0,0,8
0.5,0.30000001192092896,-0.69999998807907104,0,0,0,0,0,0,8
0.69999998807907104,0.30000001192092896,-0.69999998807907104,0,0,0,0,0,0,8
0.90000003576278687,0.30000001192092896,-0.69999998807907104,0,0,0,0,0,0,8
-0.90000003576278687,0.30000001192092896,-0.5,0,0,0,0,0,0,8
-0.69999998807907104,0.30000001192092896,-0.5,0,0,0,0,0,0,8
-0.5,0.30000001192092896,-0.5,0,0,0,0,0,0,8
-0.30000001192092896,0.30000001192092896,-0.5,0,0,0,0,0,0,8
-0.10000000149011612,0.30000001192092896,-0.5,0,0,0,0,0,0,8
0.10000000149011612,0.30000001192092896,-0.5,0,0,0,0,0,0,8
0.30000001192092896,0.30000001192092896,-0.5,0,0,0,0,0,0,8
0.5,0.30000001192092896,-0.5,0,0,0,0,0,0,8
0.69999998807907104,0.30000001192092896,-0.5,0,0,0,0,0,0,8
0.90000003576278687,0.30000001192092896,-0.5,0,0,0,0,0,0,8
-0.90000003576278687,0.30000001192092896,-0.30000001192092896,0,0,0,0,0,0,8
-0.69999998807907104,0.30000001192092896,-0.30000001192092896,0,0,0,0,0,0,8
-0.5,0.30000001192092896,-0.30000001192092896,0,0,0,0,0,0,8
-0.30000001192092896,0.30000001192092896,-0.30000001192092896,0,0,0,0,0,0,8
-0.10000000149011612,0.30000001192092896,-0.30000001192092896,0,0,0,0,0,0,8
0.10000000149011612,0.30000001192092896,-0.30000001192092896,0,0,0,0,0,0,8
0.30000001192092896,0.30000001192092896,-0.30000001192092896,0,0,0,0,0,0,8
0.5,0.30000001192092896,-0.30000001192092896,0,0,0,0,0,0,8
0.69999998807907104,0.30000001192092896,-0.30000001192092896,0,0,0,0,0,0,8
0.90000003576278687,0.30000001192092896,-0.30000001192092896,0,0,0,0,0,0,8
-0.90000003576278687,0.30000001192092896,-0.099999964237213135,0,0,0,0,0,0,8
-0.69999998807907104,0.30000001192092896,-0.099999964237213135,0,0,0,0,0,0,8
-0.5,0.30000001192092896,-0.099999964237213135,0,0,0,0,0,0,8
-0.30000001192092896,0.30000001192092896,-0.099999964237213135,0,0,0,0,0,0,8
-0.10000000149011612,0.30000001192092896,-0.099999964237213135,0,0,0,0,0,0,8
0.10000000149011612,0.30000001192092896,-0.099999964237213135,0,0,0,0,0,0,8
0.30000001192092896,0.30000001192092896,-0.099999964237213135,0,0,0,0,0,0,8
0.5,0.30000001192092896,-0.099999964237213135,0,0,0,0,0,0,8
0.69999998807907104,0.30000001192092896,-0.099999964237213135,0,0,0,0,0,0,8
0.90000003576278687,0.30000001192092896,-0.099999964237213135,0,0,0,0,0,0,8
-0.90000003576278687,0.30000001192092896,0.10000002384185791,0,0,0,0,0,0,8
-0.69999998807907104,0.30000001192092896,0.10000002384185791,0,0,0,0,0,0,8
-0.5,0.30000001192092896,0.10000002384185791,0,0,0,0,0,0,8
-0.30000001192092896,0.30000001192092896,0.10000002384185791,0,0,0,0,0,0,8
-0.10000000149011612,0.30000001192092896,0.10000002384185791,0,0,0,0,0,0,8
0.10000000149011612,0.30000001192092896,0.10000002384185791,0,0,0,0,0,0,8
0.30000001192092896,0.30000001192092896,0.10000002384185791,0,0,0,0,0,0,8
0.5,0.30000001192092896,0.10000002384185791,0,0,0,0,0,0,8
0.69999998807907104,0.30000001192092896,0.10000002384185791,0,0,0,0,0,0,8
0.90000003576278687,0.30000001192092896,0.10000002384185791,0,0,0,0,0,0,8
-0.90000003576278687,0.30000001192092896,0.30000007152557373,0,0,0,0,0,0,8
-0.69999998807907104,0.30000001192092896,0.30000007152557373,0,0,0,0,0,0,8
-0.5,0.30000001192092896,0.30000007152557373,0,0,0,0,0,0,8
-0.30000001192092896,0.30000001192092896,0.30000007152557373,0,0,0,0,0,0,8
-0.10000000149011612,0.30000001192092896,0.30000007152557373,0,0,0,0,0,0,8
0.10000000149011612,0.30000001192092896,0.30000007152557373,0,0,0,0,0,0,8
0.30000001192092896,0.30000001192092896,0.30000007152557373,0,0,0,0,0,0,8
0.5,0.30000001192092896,0.30000007152557373,0,0,0,0,0,0,8
0.69999998807907104,0.30000001192092896,0.30000007152557373,0,0,0,0,0,0,8
0.90000003576278687,0.30000001192092896,0.30000007152557373,0,0,0,0,0,0,8
-0.90000003576278687,0.30000001192092896,0.5,0,0,0,0,0,0,8
-0.69999998807907104,0.30000001192092896,0.5,0,0,0,0,0,0,8
-0.5,0.30000001192092896,0.5,0,0,0,0,0,0,8
-0.30000001192092896,0.30000001192092896,0.5,0,0,0,0,0,0,8
-0.10000000149011612,0.30000001192092896,0.5,0,0,0,0,0,0,8
0.10000000149011612,0.30000001192092896,0.5,0,0,0,0,0,0,8
0.30000001192092896,0.30000001192092896,0.5,0,0,0,0,0,0,8
0.5,0.30000001192092896,0.5,0,0,0,0,0,0,8
0.69999998807907104,0.30000001192092896,0.5,0,0,0,0,0,0,8
0.90000003576278687,0.30000001192092896,0.5,0,0,0,0,0,0,8
-0.90000003576278687,0.30000001192092896,0.70000004768371582,0,0,0,0,0,0,8
-0.69999998807907104,0.30000001192092896,0.70000004768371582,0,0,0,0,0,0,8
-0.5,0.30000001192092896,0.70000004768371582,0,0,0,0,0,0,8
-0.30000001192092896,0.30000001192092896,0.70000004768371582,0,0,0,0,0,0,8
-0.10000000149011612,0.30000001192092896,0.70000004768371582,0,0,0,0,0,0,8
0.10000000149011612,0.30000001192092896,0.70000004768371582,0,0,0,0,0,0,8
0.30000001192092896,0.30000001192092896,0.70000004768371582,0,0,0,0,0,0,8
0.5,0.30000001192092896,0.70000004768371582,0,0,0,0,0,0,8
0.69999998807907104,0.30000001192092896,0.70000004768371582,0,0,0,0,0,0,8
0.90000003576278687,0.30000001192092896,0.70000004768371582,0,0,0,0,0,0,8
-0.90000003576278687,0.30000001192092896,0.89999997615814209,0,0,0,0,0,0,8
-0.69999998807907104,0.30000001192092896,0.89999997615814209,0,0,0,0,0,0,8
-0.5,0.30000001192092896,0.89999997615814209,0,0,0,0,0,0,8
-0.30000001192092896,0.30000001192092896,0.89999997615814209,0,0,0,0,0,0,8
-0.10000000149011612,0.30000001192092896,0.89999997615814209,0,0,0,0,0,0,8
0.10000000149011612,0.30000001192092896,0.89999997615814209,0,0,0,0,0,0,8
0.30000001192092896,0.30000001192092896,0.89999997615814209,0,0,0,0,0,0,8
0.5,0.30000001192092896,0.89999997615814209,0,0,0,0,0,0,8
0.69999998807907104,0.30000001192092896,0.89999997615814209,0,0,0,0,0,0,8
0.90000003576278687,0.30000001192092896,0.89999997615814209,0,0,0,0,0,0,8
-0.90000003576278687,0.5,-0.89999997615814209,0,0,0,0,0,0,8
-0.69999998807907104,0.5,-0.89999997615814209,0,0,0,0,0,0,8
-0.5,0.5,-0.89999997615814209,0,0,0,0,0,0,8
-0.30000001192092896,0.5,-0.89999997615814209,0,0,0,0,0,0,8
-0.10000000149011612,0.5,-0.89999997615814209,0,0,0,0,0,0,8
0.10000000149011612,0.5,-0.89999997615814209,0,0,0,0,0,0,8
0.30000001192092896,0.5,-0.89999997615814209,0,0,0,0,0,0,8
0.5,0.5,-0.89999997615814209,0,0,0,0,0,0,8
0.69999998807907104,0.5,-0.89999997615814209,0,0,0,0,0,0,8
0.90000003576278687,0.5,-0.89999997615814209,0,0,0,0,0,0,8
-0.90000003576278687,0.5,-0.69999998807907104,0,0,0,0,0,0,8
-0.69999998807907104,0.5,-0.69999998807907104,0,0,0,0,0,0,8
-0.5,0.5,-0.69999998807907104,0,0,0,0,0,0,8
-0.30000001192092896,0.5,-0.69999998807907104,0,0,0,0,0,0,8
-0.10000000149011612,0.5,-0.69999998807907104,0,0,0,0,0,0,8
0.10000000149011612,0.5,-0.69999998807907104,0,0,0,0,0,0,8
0.30000001192092896,0.5,-0.69999998807907104,0,0,0,0,0,0,8
0.5,0.5,-0.69999998807907104,0,0,0,0,0,0,8
0.69999998807907104,0.5,-0.69999998807907104,0,0,0,0,0,0,8
0.90000003576278687,0.5,-0.69999998807907104,0,0,0,0,0,0,8
-0.90000003576278687,0.5,-0.5,0,0,0,0,0,0,8
-0.69999998807907104,0.5,-0.5,0,0,0,0,0,0,8
-0.5,0.5,-0.5,0,0,0,0,0,0,8
-0.30000001192092896,0.5,-0.5,0,0,0,0,0,0,8
-0.10000000149011612,0.5,-0.5,0,0,0,0,0,0,8
0.10000000149011612,0.5,-0.5,0,0,0,0,0,0,8
0.30000001192092896,0.5,-0.5,0,0,0,0,0,0,8
0.5,0.5,-0.5,0,0,0,0,0,0,8
0.69999998807907104,0.5,-0.5,0,0,0,0,0,0,8
0.90000003576278687,0.5,-0.5,0,0,0,0,0,0,8
-0.89999997615814209,0.5,-0.30000001192092896,0,0,0,0,0,0,8
-0.69999998807907104,0.5,-0.30000001192092896,0,0,0,0,0,0,8
-0.5,0.5,-0.30000001192092896,0,0,0,0,0,0,8
0.50000005960464478,0.5,-0.30000001192092896,0,0,0,0,0,0,8
0.70000004768371582,0.5,-0.30000001192092896,0,0,0,0,0,0,8
0.90000003576278687,0.5,-0.30000001192092896,0,0,0,0,0,0,8
-0.89999997615814209,0.5,-0.099999964237213135,0,0,0,0,0,0,8
-0.69999998807907104,0.5,-0.099999964237213135,0,0,0,0,0,0,8
-0.5,0.5,-0.099999964237213135,0,0,0,0,0,0,8
0.50000005960464478,0.5,-0.099999964237213135,0,0,0,0,0,0,8
0.70000004768371582,0.5,-0.099999964237213135,0,0,0,0,0,0,8
0.90000003576278687,0.5,-0.099999964237213135,0,0,0,0,0,0,8
-0.89999997615814209,0.5,0.10000002384185791,0,0,0,0,0,0,8
-0.69999998807907104,0.5,0.10000002384185791,0,0,0,0,0,0,8
-0.5,0.5,0.10000002384185791,0,0,0,0,0,0,8
0.50000005960464478,0.5,0.10000002384185791,0,0,0,0,0,0,8
0.70000004768371582,0.5,0.10000002384185791,0,0,0,0,0,0,8
0.90000003576278687,0.5,0.10000002384185791,0,0,0,0,0,0,8
-0.89999997615814209,0.5,0.30000007152557373,0,0,0,0,0,0,8
-0.69999998807907104,0.5,0.30000007152557373,0,0,0,0,0,0,8
-0.5,0.5,0.30000007152557373,0,0,0,0,0,0,8
0.50000005960464478,0.5,0.30000007152557373,0,0,0,0,0,0,8
0.70000004768371582,0.5,0.30000007152557373,0,0,0,0,0,0,8
0.90000003576278687,0.5,0.30000007152557373,0,0,0,0,0,0,8
-0.90000003576278687,0.5,0.5,0,0,0,0,0,0,8
-0.69999998807907104,0.5,0.5,0,0,0,0,0,0,8
-0.5,0.5,0.5,0,0,0,0,0,0,8
-0.30000001192092896,0.5,0.5,0,0,0,0,0,0,8
-0.10000000149011612,0.5,0.5,0,0,0,0,0,0,8
0.10000000149011612,0.5,0.5,0,0,0,0,0,0,8
0.30000001192092896,0.5,0.5,0,0,0,0,0,0,8
0.5,0.5,0.5,0,0,0,0,0,0,8
0.69999998807907104,0.5,0.5,0,0,0,0,0,0,8
0.90000003576278687,0.5,0.5,0,0,0,0,0,0,8
-0.90000003576278687,0.5,0.70000004768371582,0,0,0,0,0,0,8
-0.69999998807907104,0.5,0.70000004768371582,0,0,0,0,0,0,8
-0.5,0.5,0.70000004768371582,0,0,0,0,0,0,8
-0.30000001192092896,0.5,0.70000004768371582,0,0,0,0,0,0,8
-0.10000000149011612,0.5,0.70000004768371582,0,0,0,0,0,0,8
0.10000000149011612,0.5,0.70000004768371582,0,0,0,0,0,0,8
0.30000001192092896,0.5,0.70000004768371582,0,0,0,0,0,0,8
0.5,0.5,0.70000004768371582,0,0,0,0,0,0,8
0.69999998807907104,0.5,0.70000004768371582,0,0,0,0,0,0,8
0.90000003576278687,0.5,0.70000004768371582,0,0,0,0,0,0,8
-0.90000003576278687,0.5,0.89999997615814209,0,0,0,0,0,0,8
-0.69999998807907104,0.5,0.89999997615814209,0,0,0,0,0,0,8
-0.5,0.5,0.89999997615814209,0,0,0,0,0,0,8
-0.30000001192092896,0.5,0.89999997615814209,0,0,0,0,0,0,8
-0.10000000149011612,0.5,0.89999997615814209,0,0,0,0,0,0,8
0.10000000149011612,0.5,0.89999997615814209,0,0,0,0,0,0,8
0.30000001192092896,0.5,0.89999997615814209,0,0,0,0,0,0,8
0.5,0.5,0.89999997615814209,0,0,0,0,0,0,8
0.69999998807907104,0.5,0.89999997615814209,0,0,0,0,0,0,8
0.90000003576278687,0.5,0.89999997615814209,0,0,0,0,0,0,8
-0.90000003576278687,0.69999998807907104,-0.89999997615814209,0,0,0,0,0,0,8
-0.69999998807907104,0.69999998807907104,-0.89999997615814209,0,0,0,0,0,0,8
-0.5,0.69999998807907104,-0.89999997615814209,0,0,0,0,0,0,8
-0.30000001192092896,0.69999998807907104,-0.89999997615814209,0,0,0,0,0,0,8
-0.10000000149011612,0.69999998807907104,-0.89999997615814209,0,0,0,0,0,0,8
0.10000000149011612,0.69999998807907104,-0.89999997615814209,0,0,0,0,0,0,8
0.30000001192092896,0.69999998807907104,-0.89999997615814209,0,0,0,0,0,0,8
0.5,0.69999998807907104,-0.89999997615814209,0,0,0,0,0,0,8
0.69999998807907104,0.69999998807907104,-0.89999997615814209,0,0,0,0,0,0,8
0.90000003576278687,0.69999998807907104,-0.89999997615814209,0,0,0,0,0,0,8
-0.90000003576278687,0.69999998807907104,-0.69999998807907104,0,0,0,0,0,0,8
-0.69999998807907104,0.69999998807907104,-0.69999998807907104,0,0,0,0,0,0,8
-0.5,0.69999998807907104,-0.69999998807907104,0,0,0,0,0,0,8
-0.30000001192092896,0.69999998807907104,-0.69999998807907104,0,0,0,0,0,0,8
-0.10000000149011612,0.69999998807907104,-0.69999998807907104,0,0,0,0,0,0,8
0.10000000149011612,0.69999998807907104,-0.69999998807907104,0,0,0,0,0,0,8
0.30000001192092896,0.69999998807907104,-0.69999998807907104,0,0,0,0,0,0,8
0.5,0.69999998807907104,-0.69999998807907104,0,0,0,0,0,0,8
0.69999998807907104,0.69999998807907104,-0.69999998807907104,0,0,0,0,0,0,8
0.90000003576278687,0.69999998807907104,-0.69999998807907104,0,0,0,0,0,0,8
-0.90000003576278687,0.69999998807907104,-0.5,0,0,0,0,0,0,8
-0.69999998807907104,0.69999998807907104,-0.5,0,0,0,0,0,0,8
-0.5,0.69999998807907104,-0.5,0,0,0,0,0,0,8
-0.30000001192092896,0.69999998807907104,-0.5,0,0,0,0,0,0,8
-0.10000000149011612,0.69999998807907104,-0.5,0,0,0,0,0,0,8
0.10000000149011612,0.69999998807907104,-0.5,0,0,0,0,0,0,8
0.30000001192092896,0.69999998807907104,-0.5,0,0,0,0,0,0,8
0.5,0.69999998807907104,-0.5,0,0,0,0,0,0,8
0.69999998807907104,0.69999998807907104,-0.5,0,0,0,0,0,0,8
0.90000003576278687,0.69999998807907104,-0.5,0,0,0,0,0,0,8
-0.89999997615814209,0.69999998807907104,-0.30000001192092896,0,0,0,0,0,0,8
-0.69999998807907104,0.69999998807907104,-0.30000001192092896,0,0,0,0,0,0,8
-0.5,0.69999998807907104,-0.30000001192092896,0,0,0,0,0,0,8
0.50000005960464478,0.69999998807907104,-0.30000001192092896,0,0,0,0,0,0,8
0.70000004768371582,0.69999998807907104,-0.30000001192092896,0,0,0,0,0,0,8
0.90000003576278687,0.69999998807907104,-0.30000001192092896,0,0,0,0,0,0,8
-0.89999997615814209,0.69999998807907104,-0.099999964237213135,0,0,0,0,0,0,8
-0.69999998807907104,0.69999998807907104,-0.099999964237213135,0,0,0,0,0,0,8
-0.5,0.69999998807907104,-0.099999964237213135,0,0,0,0,0,0,8
0.50000005960464478,0.69999998807907104,-0.099999964237213135,0,0,0,0,0,0,8
0.70000004768371582,0.69999998807907104,-0.099999964237213135,0,0,0,0,0,0,8
0.90000003576278687,0.69999998807907104,-0.099999964237213135,0,0,0,0,0,0,8
-0.89999997615814209,0.69999998807907104,0.10000002384185791,0,0,0,0,0,0,8
-0.69999998807907104,0.69999998807907104,0.10000002384185791,0,0,0,0,0,0,8
-0.5,0.69999998807907104,0.10000002384185791,0,0,0,0,0,0,8
0.50000005960464478,0.69999998807907104,0.10000002384185791,0,0,0,0,0,0,8
0.70000004768371582,0.69999998807907104,0.10000002384185791,0,0,0,0,0,0,8
0.90000003576278687,0.69999998807907104,0.10000002384185791,0,0,0,0,0,0,8
-0.89999997615814209,0.69999998807907104,0.30000007152557373,0,0,0,0,0,0,8
-0.69999998807907104,0.69999998807907104,0.30000007152557373,0,0,0,0,0,0,8
-0.5,0.69999998807907104,0.30000007152557373,0,0,0,0,0,0,8
0.50000005960464478,0.69999998807907104,0.30000007152557373,0,0,0,0,0,0,8
0.70000004768371582,0.69999998807907104,0.30000007152557373,0,0,0,0,0,0,8
0.90000003576278687,0.69999998807907104,0.30000007152557373,0,0,0,0,0,0,8
-0.90000003576278687,0.69999998807907104,0.5,0,0,0,0,0,0,8
-0.69999998807907104,0.69999998807907104,0.5,0,0,0,0,0,0,8
-0.5,0.69999998807907104,0.5,0,0,0,0,0,0,8
-0.30000001192092896,0.69999998807907104,0.5,0,0,0,0,0,0,8
-0.10000000149011612,0.69999998807907104,0.5,0,0,0,0,0,0,8
0.10000000149011612,0.69999998807907104,0.5,0,0,0,0,0,0,8
0.30000001192092896,0.69999998807907104,0.5,0,0,0,0,0,0,8
0.5,0.69999998807907104,0.5,0,0,0,0,0,0,8
0.69999998807907104,0.69999998807907104,0.5,0,0,0,0,0,0,8
0.90000003576278687,0.69999998807907104,0.5,0,0,0,0,0,0,8
-0.90000003576278687,0.69999998807907104,0.70000004768371582,0,0,0,0,0,0,8
-0.69999998807907104,0.69999998807907104,0.70000004768371582,0,0,0,0,0,0,8
-0.5,0.69999998807907104,0.70000004768371582,0,0,0,0,0,0,8
-0.30000001192092896,0.69999998807907104,0.70000004768371582,0,0,0,0,0,0,8
-0.10000000149011612,0.69999998807907104,0.70000004768371582,0,0,0,0,0,0,8
0.10000000149011612,0.69999998807907104,0.70000004768371582,0,0,0,0,0,0,8
0.30000001192092896,0.69999998807907104,0.70000004768371582,0,0,0,0,0,0,8
0.5,0.69999998807907104,0.70000004768371582,0,0,0,0,0,0,8
0.69999998807907104,0.69999998807907104,0.70000004768371582,0,0,0,0,0,0,8
0.90000003576278687,0.69999998807907104,0.70000004768371582,0,0,0,0,0,0,8
-0.90000003576278687,0.69999998807907104,0.89999997615814209,0,0,0,0,0,0,8
-0.69999998807907104,0.69999998807907104,0.89999997615814209,0,0,0,0,0,0,8
-0.5,0.69999998807907104,0.89999997615814209,0,0,0,0,0,0,8
-0.30000001192092896,0.69999998807907104,0.89999997615814209,0,0,0,0,0,0,8
-0.10000000149011612,0.69999998807907104,0.89999997615814209,0,0,0,0,0,0,8
0.10000000149011612,0.69999998807907104,0.89999997615814209,0,0,0,0,0,0,8
0.30000001192092896,0.69999998807907104,0.89999997615814209,0,0,0,0,0,0,8
0.5,0.69999998807907104,0.89999997615814209,0,0,0,0,0,0,8
0.69999998807907104,0.69999998807907104,0.89999997615814209,0,0,0,0,0,0,8
0.90000003576278687,0.69999998807907104,0.89999997615814209,0,0,0,0,0,0,8
-0.90000003576278687,0.90000003576278687,-0.89999997615814209,0,0,0,0,0,0,8
-0.69999998807907104,0.90000003576278687,-0.89999997615814209,0,0,0,0,0,0,8
-0.5,0.90000003576278687,-0.89999997615814209,0,0,0,0,0,0,8
-0.30000001192092896,0.90000003576278687,-0.89999997615814209,0,0,0,0,0,0,8
-0.10000000149011612,0.90000003576278687,-0.89999997615814209,0,0,0,0,0,0,8
0.10000000149011612,0.90000003576278687,-0.89999997615814209,0,0,0,0,0,0,8
0.30000001192092896,0.90000003576278687,-0.89999997615814209,0,0,0,0,0,0,8
0.5,0.90000003576278687,-0.89999997615814209,0,0,0,0,0,0,8
0.69999998807907104,0.90000003576278687,-0.89999997615814209,0,0,0,0,0,0,8
0.90000003576278687,0.90000003576278687,-0.89999997615814209,0,0,0,0,0,0,8
-0.90000003576278687,0.90000003576278687,-0.69999998807907104,0,0,0,0,0,0,8
-0.69999998807907104,0.90000003576278687,-0.69999998807907104,0,0,0,0,0,0,8
-0.5,0.90000003576278687,-0.69999998807907104,0,0,0,0,0,0,8
-0.30000001192092896,0.90000003576278687,-0.69999998807907104,0,0,0,0,0,0,8
-0.10000000149011612,0.90000003576278687,-0.69999998807907104,0,0,0,0,0,0,8
0.10000000149011612,0.90000003576278687,-0.69999998807907104,0,0,0,0,0,0,8
0.30000001192092896,0.90000003576278687,-0.69999998807907104,0,0,0,0,0,0,8
0.5,0.90000003576278687,-0.69999998807907104,0,0,0,0,0,0,8
0.69999998807907104,0.90000003576278687,-0.69999998807907104,0,0,0,0,0,0,8
0.90000003576278687,0.90000003576278687,-0.69999998807907104,0,0,0,0,0,0,8
-0.90000003576278687,0.90000003576278687,-0.5,0,0,0,0,0,0,8
-0.69999998807907104,0.90000003576278687,-0.5,0,0,0,0,0,0,8
-0.5,0.90000003576278687,-0.5,0,0,0,0,0,0,8
-0.30000001192092896,0.90000003576278687,-0.5,0,0,0,0,0,0,8
-0.10000000149011612,0.90000003576278687,-0.5,0,0,0,0,0,0,8
0.10000000149011612,0.90000003576278687,-0.5,0,0,0,0,0,0,8
0.30000001192092896,0.90000003576278687,-0.5,0,0,0,0,0,0,8
0.5,0.90000003576278687,-0.5,0,0,0,0,0,0,8
0.69999998807907104,0.90000003576278687,-0.5,0,0,0,0,0,0,8
0.90000003576278687,0.90000003576278687,-0.5,0,0,0,0,0,0,8
-0.89999997615814209,0.90000003576278687,-0.30000001192092896,0,0,0,0,0,0,8
-0.69999998807907104,0.90000003576278687,-0.30000001192092896,0,0,0,0,0,0,8
-0.5,0.90000003576278687,-0.30000001192092896,0,0,0,0,0,0,8
0.50000005960464478,0.90000003576278687,-0.30000001192092896,0,0,0,0,0,0,8
0.70000004768371582,0.90000003576278687,-0.30000001192092896,0,0,0,0,0,0,8
0.90000003576278687,0.90000003576278687,-0.30000001192092896,0,0,0,0,0,0,8
-0.89999997615814209,0.90000003576278687,-0.099999964237213135,0,0,0,0,0,0,8
-0.69999998807907104,0.90000003576278687,-0.099999964237213135,0,0,0,0,0,0,8
-0.5,0.90000003576278687,-0.099999964237213135,0,0,0,0,0,0,8
0.50000005960464478,0.90000003576278687,-0.099999964237213135,0,0,0,0,0,0,8
0.70000004768371582,0.90000003576278687,-0.099999964237213135,0,0,0,0,0,0,8
0.90000003576278687,0.90000003576278687,-0.099999964237213135,0,0,0,0,0,0,8
-0.89999997615814209,0.90000003576278687,0.10000002384185791,0,0,0,0,0,0,8
-0.69999998807907104,0.90000003576278687,0.10000002384185791,0,0,0,0,0,0,8
-0.5,0.90000003576278687,0.10000002384185791,0,0,0,0,0,0,8
0.50000005960464478,0.90000003576278687,0.10000002384185791,0,0,0,0,0,0,8
0.70000004768371582,0.90000003576278687,0.10000002384185791,0,0,0,0,0,0,8
0.90000003576278687,0.90000003576278687,0.10000002384185791,0,0,0,0,0,0,8
-0.89999997615814209,0.90000003576278687,0.30000007152557373,0,0,0,0,0,0,8
-0.69999998807907104,0.90000003576278687,0.30000007152557373,0,0,0,0,0,0,8
-0.5,0.90000003576278687,0.30000007152557373,0,0,0,0,0,0,8
0.50000005960464478,0.90000003576278687,0.30000007152557373,0,0,0,0,0,0,8
0.70000004768371582,0.90000003576278687,0.30000007152557373,0,0,0,0,0,0,8
0.90000003576278687,0.90000003576278687,0.30000007152557373,0,0,0,0,0,0,8
-0.90000003576278687,0.90000003576278687,0.5,0,0,0,0,0,0,8
-0.69999998807907104,0.90000003576278687,0.5,0,0,0,0,0,0,8
-0.5,0.90000003576278687,0.5,0,0,0,0,0,0,8
-0.30000001192092896,0.90000003576278687,0.5,0,0,0,0,0,0,8
-0.10000000149011612,0.90000003576278687,0.5,0,0,0,0,0,0,8
0.10000000149011612,0.90000003576278687,0.5,0,0,0,0,0,0,8
0.30000001192092896,0.90000003576278687,0.5,0,0,0,0,0,0,8
0.5,0.90000003576278687,0.5,0,0,0,0,0,0,8
0.69999998807907104,0.90000003576278687,0.5,0,0,0,0,0,0,8
0.90000003576278687,0.90000003576278687,0.5,0,0,0,0,0,0,8
-0.90000003576278687,0.90000003576278687,0.70000004768371582,0,0,0,0,0,0,8
-0.69999998807907104,0.90000003576278687,0.70000004768371582,0,0,0,0,0,0,8
-0.5,0.90000003576278687,0.70000004768371582,0,0,0,0,0,0,8
-0.30000001192092896,0.90000003576278687,0.70000004768371582,0,0,0,0,0,0,8
-0.10000000149011612,0.90000003576278687,0.70000004768371582,0,0,0,0,0,0,8
0.10000000149011612,0.90000003576278687,0.70000004768371582,0,0,0,0,0,0,8
0.30000001192092896,0.90000003576278687,0.70000004768371582,0,0,0,0,0,0,8
0.5,0.90000003576278687,0.70000004768371582,0,0,0,0,0,0,8
0.69999998807907104,0.90000003576278687,0.70000004768371582,0,0,0,0,0,0,8
0.90000003576278687,0.90000003576278687,0.70000004768371582,0,0,0,0,0,0,8
-0.90000003576278687,0.90000003576278687,0.89999997615814209,0,0,0,0,0,0,8
-0.69999998807907104,0.90000003576278687,0.89999997615814209,0,0,0,0,0,0,8
-0.5,0.90000003576278687,0.89999997615814209,0,0,0,0,0,0,8
-0.30000001192092896,0.90000003576278687,0.89999997615814209,0,0,0,0,0,0,8
-0.10000000149011612,0.90000003576278687,0.89999997615814209,0,0,0,0,0,0,8
0.10000000149011612,0.90000003576278687,0.89999997615814209,0,0,0,0,0,0,8
0.30000001192092896,0.90000003576278687,0.89999997615814209,0,0,0,0,0,0,8
0.5,0.90000003576278687,0.89999997615814209,0,0,0,0,0,0,8
0.69999998807907104,0.90000003576278687,0.89999997615814209,0,0,0,0,0,0,8
0.90000003576278687,0.90000003576278687,0.89999997615814209,0,0,0,0,0,0,8
-0.90000003576278687,1.1000000238418579,-0.89999997615814209,0,0,0,0,0,0,8
-0.69999998807907104,1.1000000238418579,-0.89999997615814209,0,0,0,0,0,0,8
-0.5,1.1000000238418579,-0.89999997615814209,0,0,0,0,0,0,8
-0.30000001192092896,1.1000000238418579,-0.89999997615814209,0,0,0,0,0,0,8
-0.10000000149011612,1.1000000238418579,-0.89999997615814209,0,0,0,0,0,0,8
0.10000000149011612,1.1000000238418579,-0.89999997615814209,0,0,0,0,0,0,8
0.30000001192092896,1.1000000238418579,-0.89999997615814209,0,0,0,0,0,0,8
0.5,1.1000000238418579,-0.89999997615814209,0,0,0,0,0,0,8
0.69999998807907104,1.1000000238418579,-0.89999997615814209,0,0,0,0,0,0,8
0.90000003576278687,1.1000000238418579,-0.89999997615814209,0,0,0,0,0,0,8
-0.90000003576278687,1.1000000238418579,-0.69999998807907104,0,0,0,0,0,0,8
-0.69999998807907104,1.1000000238418579,-0.69999998807907104,0,0,0,0,0,0,8
-0.5,1.1000000238418579,-0.69999998807907104,0,0,0,0,0,0,8
-0.30000001192092896,1.1000000238418579,-0.69999998807907104,0,0,0,0,0,0,8
-0.10000000149011612,1.1000000238418579,-0.69999998807907104,0,0,0,0,0,0,8
0.10000000149011612,1.1000000238418579,-0.69999998807907104,0,0,0,0,0,0,8
0.30000001192092896,1.1000000238418579,-0.69999998807907104,0,0,0,0,0,0,8
0.5,1.1000000238418579,-0.69999998807907104,0,0,0,0,0,0,8
0.69999998807907104,1.1000000238418579,-0.69999998807907104,0,0,0,0,0,0,8
0.90000003576278687,1.1000000238418579,-0.69999998807907104,0,0,0,0,0,0,8
-0.90000003576278687,1.1000000238418579,-0.5,0,0,0,0,0,0,8
-0.69999998807907104,1.1000000238418579,-0.5,0,0,0,0,0,0,8
-0.5,1.1000000238418579,-0.5,0,0,0,0,0,0,8
-0.30000001192092896,1.1000000238418579,-0.5,0,0,0,0,0,0,8
-0.10000000149011612,1.1000000238418579,-0.5,0,0,0,0,0,0,8
0.10000000149011612,1.1000000238418579,-0.5,0,0,0,0,0,0,8
0.30000001192092896,1.1000000238418579,-0.5,0,0,0,0,0,0,8
0.5,1.1000000238418579,-0.5,0,0,0,0,0,0,8
0.69999998807907104,1.1000000238418579,-0.5,0,0,0,0,0,0,8
0.90000003576278687,1.1000000238418579,-0.5,0,0,0,0,0,0,8
-0.90000003576278687,1.1000000238418579,-0.30000001192092896,0,0,0,0,0,0,8
-0.69999998807907104,1.1000000238418579,-0.30000001192092896,0,0,0,0,0,0,8
-0.5,1.1000000238418579,-0.30000001192092896,0,0,0,0,0,0,8
-0.30000001192092896,1.1000000238418579,-0.30000001192092896,0,0,0,0,0,0,8
-0.10000000149011612,1.1000000238418579,-0.30000001192092896,0,0,0,0,0,0,8
0.10000000149011612,1.1000000238418579,-0.30000001192092896,0,0,0,0,0,0,8
0.30000001192092896,1.1000000238418579,-0.30000001192092896,0,0,0,0,0,0,8
0.5,1.1000000238418579,-0.30000001192092896,0,0,0,0,0,0,8
0.69999998807907104,1.1000000238418579,-0.30000001192092896,0,0,0,0,0,0,8
0.90000003576278687,1.1000000238418579,-0.30000001192092896,0,0,0,0,0,0,8
-0.90000003576278687,1.1000000238418579,-0.099999964237213135,0,0,0,0,0,0,8
-0.69999998807907104,1.1000000238418579,-0.099999964237213135,0,0,0,0,0,0,8
-0.5,1.1000000238418579,-0.099999964237213135,0,0,0,0,0,0,8
-0.30000001192092896,1.1000000238418579,-0.099999964237213135,0,0,0,0,0,0,8
-0.10000000149011612,1.1000000238418579,-0.099999964237213135,0,0,0,0,0,0,8
0.10000000149011612,1.1000000238418579,-0.099999964237213135,0,0,0,0,0,0,8
0.30000001192092896,1.1000000238418579,-0.099999964237213135,0,0,0,0,0,0,8
0.5,1.1000000238418579,-0.099999964237213135,0,0,0,0,0,0,8
0.69999998807907104,1.1000000238418579,-0.099999964237213135,0,0,0,0,0,0,8
0.90000003576278687,1.1000000238418579,-0.099999964237213135,0,0,0,0,0,0,8
-0.90000003576278687,1.1000000238418579,0.10000002384185791,0,0,0,0,0,0,8
-0.69999998807907104,1.1000000238418579,0.10000002384185791,0,0,0,0,0,0,8
-0.5,1.1000000238418579,0.10000002384185791,0,0,0,0,0,0,8
-0.30000001192092896,1.1000000238418579,0.10000002384185791,0,0,0,0,0,0,8
-0.10000000149011612,1.1000000238418579,0.10000002384185791,0,0,0,0,0,0,8
0.10000000149011612,1.1000000238418579,0.10000002384185791,0,0,0,0,0,0,8
0.30000001192092896,1.1000000238418579,0.10000002384185791,0,0,0,0,0,0,8
0.5,1.1000000238418579,0.10000002384185791,0,0,0,0,0,0,8
0.69999998807907104,1.1000000238418579,0.10000002384185791,0,0,0,0,0,0,8
0.90000003576278687,1.1000000238418579,0.10000002384185791,0,0,0,0,0,0,8
-0.90000003576278687,1.1000000238418579,0.30000007152557373,0,0,0,0,0,0,8
-0.69999998807907104,1.1000000238418579,0.30000007152557373,0,0,0,0,0,0,8
-0.5,1.1000000238418579,0.30000007152557373,0,0,0,0,0,0,8
-0.30000001192092896,1.1000000238418579,0.30000007152557373,0,0,0,0,0,0,8
-0.10000000149011612,1.1000000238418579,0.30000007152557373,0,0,0,0,0,0,8
0.10000000149011612,1.1000000238418579,0.30000007152557373,0,0,0,0,0,0,8
0.30000001192092896,1.1000000238418579,0.30000007152557373,0,0,0,0,0,0,8
0.5,1.1000000238418579,0.30000007152557373,0,0,0,0,0,0,8
0.69999998807907104,1.1000000238418579,0.30000007152557373,0,0,0,0,0,0,8
0.90000003576278687,1.1000000238418579,0.30000007152557373,0,0,0,0,0,0,8
-0.90000003576278687,1.1000000238418579,0.5,0,0,0,0,0,0,8
-0.69999998807907104,1.1000000238418579,0.5,0,0,0,0,0,0,8
-0.5,1.1000000238418579,0.5,0,0,0,0,0,0,8
-0.30000001192092896,1.1000000238418579,0.5,0,0,0,0,0,0,8
-0.10000000149011612,1.1000000238418579,0.5,0,0,0,0,0,0,8
0.10000000149011612,1.1000000238418579,0.5,0,0,0,0,0,0,8
0.30000001192092896,1.1000000238418579,0.5,0,0,0,0,0,0,8
0.5,1.1000000238418579,0.5,0,0,0,0,0,0,8
0.69999998807907104,1.1000000238418579,0.5,0,0,0,0,0,0,8
0.90000003576278687,1.1000000238418579,0.5,0,0,0,0,0,0,8
-0.90000003576278687,1.1000000238418579,0.70000004768371582,0,0,0,0,0,0,8
-0.69999998807907104,1.1000000238418579,0.70000004768371582,0,0,0,0,0,0,8
-0.5,1.1000000238418579,0.70000004768371582,0,0,0,0,0,0,8
-0.30000001192092896,1.1000000238418579,0.70000004768371582,0,0,0,0,0,0,8
-0.10000000149011612,1.1000000238418579,0.70000004768371582,0,0,0,0,0,0,8
0.10000000149011612,1.1000000238418579,0.70000004768371582,0,0,0,0,0,0,8
0.30000001192092896,1.1000000238418579,0.70000004768371582,0,0,0,0,0,0,8
0.5,1.1000000238418579,0.70000004768371582,0,0,0,0,0,0,8
0.69999998807907104,1.1000000238418579,0.70000004768371582,0,0,0,0,0,0,8
0.90000003576278687,1.1000000238418579,0.70000004768371582,0,0,0,0,0,0,8
-0.90000003576278687,1.1000000238418579,0.89999997615814209,0,0,0,0,0,0,8
-0.69999998807907104,1.1000000238418579,0.89999997615814209,0,0,0,0,0,0,8
-0.5,1.1000000238418579,0.89999997615814209,0,0,0,0,0,0,8
-0.30000001192092896,1.1000000238418579,0.89999997615814209,0,0,0,0,0,0,8
-0.10000000149011612,1.1000000238418579,0.89999997615814209,0,0,0,0,0,0,8
0.10000000149011612,1.1000000238418579,0.89999997615814209,0,0,0,0,0,0,8
0.30000001192092896,1.1000000238418579,0.89999997615814209,0,0,0,0,0,0,8
0.5,1.1000000238418579,0.89999997615814209,0,0,0,0,0,0,8
0.69999998807907104,1.1000000238418579,0.89999997615814209,0,0,0,0,0,0,8
0.90000003576278687,1.1000000238418579,0.89999997615814209,0,0,0,0,0,0,8
-0.90000003576278687,1.3000000715255737,-0.89999997615814209,0,0,0,0,0,0,8
-0.69999998807907104,1.3000000715255737,-0.89999997615814209,0,0,0,0,0,0,8
-0.5,1.3000000715255737,-0.89999997615814209,0,0,0,0,0,0,8
-0.30000001192092896,1.3000000715255737,-0.89999997615814209,0,0,0,0,0,0,8
-0.10000000149011612,1.3000000715255737,-0.89999997615814209,0,0,0,0,0,0,8
0.10000000149011612,1.3000000715255737,-0.89999997615814209,0,0,0,0,0,0,8
0.30000001192092896,1.3000000715255737,-0.89999997615814209,0,0,0,0,0,0,8
0.5,1.3000000715255737,-0.89999997615814209,0,0,0,0,0,0,8
0.69999998807907104,1.3000000715255737,-0.89999997615814209,0,0,0,0,0,0,8
0.90000003576278687,1.3000000715255737,-0.89999997615814209,0,0,0,0,0,0,8
-0.90000003576278687,1.3000000715255737,-0.69999998807907104,0,0,0,0,0,0,8
-0.69999998807907104,1.3000000715255737,-0.69999998807907104,0,0,0,0,0,0,8
-0.5,1.3000000715255737,-0.69999998807907104,0,0,0,0,0,0,8
-0.30000001192092896,1.3000000715255737,-0.69999998807907104,0,0,0,0,0,0,8
-0.10000000149011612,1.3000000715255737,-0.69999998807907104,0,0,0,0,0,0,8
0.10000000149011612,1.3000000715255737,-0.69999998807907104,0,0,0,0,0,0,8
0.30000001192092896,1.3000000715255737,-0.69999998807907104,0,0,0,0,0,0,8
0.5,1.3000000715255737,-0.69999998807907104,0,0,0,0,0,0,8
0.69999998807907104,1.3000000715255737,-0.69999998807907104,0,0,0,0,0,0,8
0.90000003576278687,1.3000000715255737,-0.69999998807907104,0,0,0,0,0,0,8
-0.90000003576278687,1.3000000715255737,-0.5,0,0,0,0,0,0,8
-0.69999998807907104,1.3000000715255737,-0.5,0,0,0,0,0,0,8
-0.5,1.3000000715255737,-0.5,0,0,0,0,0,0,8
-0.30000001192092896,1.3000000715255737,-0.5,0,0,0,0,0,0,8
-0.10000000149011612,1.3000000715255737,-0.5,0,0,0,0,0,0,8
0.10000000149011612,1.3000000715255737,-0.5,0,0,0,0,0,0,8
0.30000001192092896,1.3000000715255737,-0.5,0,0,0,0,0,0,8
0.5,1.3000000715255737,-0.5,0,0,0,0,0,0,8
0.69999998807907104,1.3000000715255737,-0.5,0,0,0,0,0,0,8
0.90000003576278687,1.3000000715255737,-0.5,0,0,0,0,0,0,8
-0.90000003576278687,1.3000000715255737,-0.30000001192092896,0,0,0,0,0,0,8
-0.69999998807907104,1.3000000715255737,-0.30000001192092896,0,0,0,0,0,0,8
-0.5,1.3000000715255737,-0.30000001192092896,0,0,0,0,0,0,8
-0.30000001192092896,1.3000000715255737,-0.30000001192092896,0,0,0,0,0,0,8
-0.10000000149011612,1.3000000715255737,-0.30000001192092896,0,0,0,0,0,0,8
0.10000000149011612,1.3000000715255737,-0.30000001192092896,0,0,0,0,0,0,8
0.30000001192092896,1.3000000715255737,-0.30000001192092896,0,0,0,0,0,0,8
0.5,1.3000000715255737,-0.30000001192092896,0,0,0,0,0,0,8
0.69999998807907104,1.3000000715255737,-0.30000001192092896,0,0,0,0,0,0,8
0.90000003576278687,1.3000000715255737,-0.30000001192092896,0,0,0,0,0,0,8
-0.90000003576278687,1.3000000715255737,-0.099999964237213135,0,0,0,0,0,0,8
-0.69999998807907104,1.3000000715255737,-0.099999964237213135,0,0,0,0,0,0,8
-0.5,1.3000000715255737,-0.099999964237213135,0,0,0,0,0,0,8
-0.30000001192092896,1.3000000715255737,-0.099999964237213135,0,0,0,0,0,0,8
-0.10000000149011612,1.3000000715255737,-0.099999964237213135,0,0,0,0,0,0,8
0.10000000149011612,1.3000000715255737,-0.099999964237213135,0,0,0,0,0,0,8
0.30000001192092896,1.3000000715255737,-0.099999964237213135,0,0,0,0,0,0,8
0.5,1.3000000715255737,-0.099999964237213135,0,0,0,0,0,0,8
0.69999998807907104,1.3000000715255737,-0.099999964237213135,0,0,0,0,0,0,8
0.90000003576278687,1.3000000715255737,-0.099999964237213135,0,0,0,0,0,0,8
-0.90000003576278687,1.3000000715255737,0.10000002384185791,0,0,0,0,0,0,8
-0.69999998807907104,1.3000000715255737,0.10000002384185791,0,0,0,0,0,0,8
-0.5,1.3000000715255737,0.10000002384185791,0,0,0,0,0,0,8
-0.30000001192092896,1.3000000715255737,0.10000002384185791,0,0,0,0,0,0,8
-0.10000000149011612,1.3000000715255737,0.10000002384185791,0,0,0,0,0,0,8
0.10000000149011612,1.3000000715255737,0.10000002384185791,0,0,0,0,0,0,8
0.30000001192092896,1.3000000715255737,0.10000002384185791,0,0,0,0,0,0,8
0.5,1.3000000715255737,0.10000002384185791,0,0,0,0,0,0,8
0.69999998807907104,1.3000000715255737,0.10000002384185791,0,0,0,0,0,0,8
0.90000003576278687,1.3000000715255737,0.10000002384185791,0,0,0,0,0,0,8
-0.90000003576278687,1.3000000715255737,0.30000007152557373,0,0,0,0,0,0,8
-0.69999998807907104,1.3000000715255737,0.30000007152557373,0,0,0,0,0,0,8
-0.5,1.3000000715255737,0.30000007152557373,0,0,0,0,0,0,8
-0.30000001192092896,1.3000000715255737,0.30000007152557373,0,0,0,0,0,0,8
-0.10000000149011612,1.3000000715255737,0.30000007152557373,0,0,0,0,0,0,8
0.10000000149011612,1.3000000715255737,0.30000007152557373,0,0,0,0,0,0,8
0.30000001192092896,1.3000000715255737,0.30000007152557373,0,0,0,0,0,0,8
0.5,1.3000000715255737,0.30000007152557373,0,0,0,0,0,0,8
0.69999998807907104,1.3000000715255737,0.30000007152557373,0,0,0,0,0,0,8
0.90000003576278687,1.3000000715255737,0.30000007152557373,0,0,0,0,0,0,8
-0.90000003576278687,1.3000000715255737,0.5,0,0,0,0,0,0,8
-0.69999998807907104,1.3000000715255737,0.5,0,0,0,0,0,0,8
-0.5,1.3000000715255737,0.5,0,0,0,0,0,0,8
-0.30000001192092896,1.3000000715255737,0.5,0,0,0,0,0,0,8
-0.10000000149011612,1.3000000715255737,0.5,0,0,0,0,0,0,8
0.10000000149011612,1.3000000715255737,0.5,0,0,0,0,0,0,8
0.30000001192092896,1.3000000715255737,0.5,0,0,0,0,0,0,8
0.5,1.3000000715255737,0.5,0,0,0,0,0,0,8
0.69999998807907104,1.3000000715255737,0.5,0,0,0,0,0,0,8
0.90000003576278687,1.3000000715255737,0.5,0,0,0,0,0,0,8
-0.90000003576278687,1.3000000715255737,0.70000004768371582,0,0,0,0,0,0,8
-0.69999998807907104,1.3000000715255737,0.70000004768371582,0,0,0,0,0,0,8
-0.5,1.3000000715255737,0.70000004768371582,0,0,0,0,0,0,8
-0.30000001192092896,1.3000000715255737,0.70000004768371582,0,0,0,0,0,0,8
-0.10000000149011612,1.3000000715255737,0.70000004768371582,0,0,0,0,0,0,8
0.10000000149011612,1.3000000715255737,0.70000004768371582,0,0,0,0,0,0,8
0.30000001192092896,1.3000000715255737,0.70000004768371582,0,0,0,0,0,0,8
0.5,1.3000000715255737,0.70000004768371582,0,0,0,0,0,0,8
0.69999998807907104,1.3000000715255737,0.70000004768371582,0,0,0,0,0,0,8
0.90000003576278687,1.3000000715255737,0.70000004768371582,0,0,0,0,0,0,8
-0.90000003576278687,1.3000000715255737,0.89999997615814209,0,0,0,0,0,0,8
-0.69999998807907104,1.3000000715255737,0.89999997615814209,0,0,0,0,0,0,8
-0.5,1.3000000715255737,0.89999997615814209,0,0,0,0,0,0,8
-0.30000001192092896,1.3000000715255737,0.89999997615814209,0,0,0,0,0,0,8
-0.10000000149011612,1.3000000715255737,0.89999997615814209,0,0,0,0,0,0,8
0.10000000149011612,1.3000000715255737,0.89999997615814209,0,0,0,0,0,0,8
0.30000001192092896,1.3000000715255737,0.89999997615814209,0,0,0,0,0,0,8
0.5,1.3000000715255737,0.89999997615814209,0,0,0,0,0,0,8
0.69999998807907104,1.3000000715255737,0.89999997615814209,0,0,0,0,0,0,8
0.90000003576278687,1.3000000715255737,0.89999997615814209,0,0,0,0,0,0,8
-0.90000003576278687,1.5,-0.89999997615814209,0,0,0,0,0,0,8
-0.69999998807907104,1.5,-0.89999997615814209,0,0,0,0,0,0,8
-0.5,1.5,-0.89999997615814209,0,0,0,0,0,0,8
-0.30000001192092896,1.5,-0.89999997615814209,0,0,0,0,0,0,8
-0.10000000149011612,1.5,-0.89999997615814209,0,0,0,0,0,0,8
0.10000000149011612,1.5,-0.89999997615814209,0,0,0,0,0,0,8
0.30000001192092896,1.5,-0.89999997615814209,0,0,0,0,0,0,8
0.5,1.5,-0.89999997615814209,0,0,0,0,0,0,8
0.69999998807907104,1.5,-0.89999997615814209,0,0,0,0,0,0,8
0.90000003576278687,1.5,-0.89999997615814209,0,0,0,0,0,0,8
-0.90000003576278687,1.5,-0.69999998807907104,0,0,0,0,0,0,8
-0.69999998807907104,1.5,-0.69999998807907104,0,0,0,0,0,0,8
-0.5,1.5,-0.69999998807907104,0,0,0,0,0,0,8
-0.30000001192092896,1.5,-0.69999998807907104,0,0,0,0,0,0,8
-0.10000000149011612,1.5,-0.69999998807907104,0,0,0,0,0,0,8
0.10000000149011612,1.5,-0.69999998807907104,0,0,0,0,0,0,8
0.30000001192092896,1.5,-0.69999998807907104,0,0,0,0,0,0,8
0.5,1.5,-0.69999998807907104,0,0,0,0,0,0,8
0.69999998807907104,1.5,-0.69999998807907104,0,0,0,0,0,0,8
0.90000003576278687,1.5,-0.69999998807907104,0,0,0,0,0,0,8
-0.90000003576278687,1.5,-0.5,0,0,0,0,0,0,8
-0.69999998807907104,1.5,-0.5,0,0,0,0,0,0,8
-0.5,1.5,-0.5,0,0,0,0,0,0,8
-0.30000001192092896,1.5,-0.5,0,0,0,0,0,0,8
-0.10000000149011612,1.5,-0.5,0,0,0,0,0,0,8
0.10000000149011612,1.5,-0.5,0,0,0,0,0,0,8
0.30000001192092896,1.5,-0.5,0,0,0,0,0,0,8
0.5,1.5,-0.5,0,0,0,0,0,0,8
0.69999998807907104,1.5,-0.5,0,0,0,0,0,0,8
0.90000003576278687,1.5,-0.5,0,0,0,0,0,0,8
-0.90000003576278687,1.5,-0.30000001192092896,0,0,0,0,0,0,8
-0.69999998807907104,1.5,-0.30000001192092896,0,0,0,0,0,0,8
-0.5,1.5,-0.30000001192092896,0,0,0,0,0,0,8
-0.30000001192092896,1.5,-0.30000001192092896,0,0,0,0,0,0,8
-0.10000000149011612,1.5,-0.30000001192092896,0,0,0,0,0,0,8
0.10000000149011612,1.5,-0.30000001192092896,0,0,0,0,0,0,8
0.30000001192092896,1.5,-0.30000001192092896,0,0,0,0,0,0,8
0.5,1.5,-0.30000001192092896,0,0,0,0,0,0,8
0.69999998807907104,1.5,-0.30000001192092896,0,0,0,0,0,0,8
0.90000003576278687,1.5,-0.30000001192092896,0,0,0,0,0,0,8
-0.90000003576278687,1.5,-0.099999964237213135,0,0,0,0,0,0,8
-0.69999998807907104,1.5,-0.099999964237213135,0,0,0,0,0,0,8
-0.5,1.5,-0.099999964237213135,0,0,0,0,0,0,8
-0.30000001192092896,1.5,-0.099999964237213135,0,0,0,0,0,0,8
-0.10000000149011612,1.5,-0.099999964237213135,0,0,0,0,0,0,8
0.10000000149011612,1.5,-0.099999964237213135,0,0,0,0,0,0,8
0.30000001192092896,1.5,-0.099999964237213135,0,0,0,0,0,0,8
0.5,1.5,-0.099999964237213135,0,0,0,0,0,0,8
0.69999998807907104,1.5,-0.099999964237213135,0,0,0,0,0,0,8
0.90000003576278687,1.5,-0.099999964237213135,0,0,0,0,0,0,8
-0.90000003576278687,1.5,0.10000002384185791,0,0,0,0,0,0,8
-0.69999998807907104,1.5,0.10000002384185791,0,0,0,0,0,0,8
-0.5,1.5,0.10000002384185791,0,0,0,0,0,0,8
-0.30000001192092896,1.5,0.10000002384185791,0,0,0,0,0,0,8
-0.10000000149011612,1.5,0.10000002384185791,0,0,0,0,0,0,8
0.10000000149011612,1.5,0.10000002384185791,0,0,0,0,0,0,8
0.30000001192092896,1.5,0.10000002384185791,0,0,0,0,0,0,8
0.5,1.5,0.10000002384185791,0,0,0,0,0,0,8
0.69999998807907104,1.5,0.10000002384185791,0,0,0,0,0,0,8
0.90000003576278687,1.5,0.10000002384185791,0,0,0,0,0,0,8
-0.90000003576278687,1.5,0.30000007152557373,0,0,0,0,0,0,8
-0.69999998807907104,1.5,0.30000007152557373,0,0,0,0,0,0,8
-0.5,1.5,0.30000007152557373,0,0,0,0,0,0,8
-0.30000001192092896,1.5,0.30000007152557373,0,0,0,0,0,0,8
-0.10000000149011612,1.5,0.30000007152557373,0,0,0,0,0,0,8
0.10000000149011612,1.5,0.30000007152557373,0,0,0,0,0,0,8
0.30000001192092896,1.5,0.30000007152557373,0,0,0,0,0,0,8
0.5,1.5,0.30000007152557373,0,0,0,0,0,0,8
0.69999998807907104,1.5,0.30000007152557373,0,0,0,0,0,0,8
0.90000003576278687,1.5,0.30000007152557373,0,0,0,0,0,0,8
-0.90000003576278687,1.5,0.5,0,0,0,0,0,0,8
-0.69999998807907104,1.5,0.5,0,0,0,0,0,0,8
-0.5,1.5,0.5,0,0,0,0,0,0,8
-0.30000001192092896,1.5,0.5,0,0,0,0,0,0,8
-0.10000000149011612,1.5,0.5,0,0,0,0,0,0,8
0.10000000149011612,1.5,0.5,0,0,0,0,0,0,8
0.30000001192092896,1.5,0.5,0,0,0,0,0,0,8
0.5,1.5,0.5,0,0,0,0,0,0,8
0.69999998807907104,1.5,0.5,0,0,0,0,0,0,8
0.90000003576278687,1.5,0.5,0,0,0,0,0,0,8
-0.90000003576278687,1.5,0.70000004768371582,0,0,0,0,0,0,8
-0.69999998807907104,1.5,0.70000004768371582,0,0,0,0,0,0,8
-0.5,1.5,0.70000004768371582,0,0,0,0,0,0,8
-0.30000001192092896,1.5,0.70000004768371582,0,0,0,0,0,0,8
-0.10000000149011612,1.5,0.70000004768371582,0,0,0,0,0,0,8
0.10000000149011612,1.5,0.70000004768371582,0,0,0,0,0,0,8
0.30000001192092896,1.5,0.70000004768371582,0,0,0,0,0,0,8
0.5,1.5,0.70000004768371582,0,0,0,0,0,0,8
0.69999998807907104,1.5,0.70000004768371582,0,0,0,0,0,0,8
0.90000003576278687,1.5,0.70000004768371582,0,0,0,0,0,0,8
-0.90000003576278687,1.5,0.89999997615814209,0,0,0,0,0,0,8
-0.69999998807907104,1.5,0.89999997615814209,0,0,0,0,0,0,8
-0.5,1.5,0.89999997615814209,0,0,0,0,0,0,8
-0.30000001192092896,1.5,0.89999997615814209,0,0,0,0,0,0,8
-0.10000000149011612,1.5,0.89999997615814209,0,0,0,0,0,0,8
0.10000000149011612,1.5,0.89999997615814209,0,0,0,0,0,0,8
0.30000001192092896,1.5,0.89999997615814209,0,0,0,0,0,0,8
0.5,1.5,0.89999997615814209,0,0,0,0,0,0,8
0.69999998807907104,1.5,0.89999997615814209,0,0,0,0,0,0,8
0.90000003576278687,1.5,0.89999997615814209,0,0,0,0,0,0,8
-0.90000003576278687,1.7000000476837158,-0.89999997615814209,0,0,0,0,0,0,8
-0.69999998807907104,1.7000000476837158,-0.89999997615814209,0,0,0,0,0,0,8
-0.5,1.7000000476837158,-0.89999997615814209,0,0,0,0,0,0,8
-0.30000001192092896,1.7000000476837158,-0.89999997615814209,0,0,0,0,0,0,8
-0.10000000149011612,1.7000000476837158,-0.89999997615814209,0,0,0,0,0,0,8
0.10000000149011612,1.7000000476837158,-0.89999997615814209,0,0,0,0,0,0,8
0.30000001192092896,1.7000000476837158,-0.89999997615814209,0,0,0,0,0,0,8
0.5,1.7000000476837158,-0.89999997615814209,0,0,0,0,0,0,8
0.69999998807907104,1.7000000476837158,-0.89999997615814209,0,0,0,0,0,0,8
0.90000003576278687,1.7000000476837158,-0.89999997615814209,0,0,0,0,0,0,8
-0.90000003576278687,1.7000000476837158,-0.69999998807907104,0,0,0,0,0,0,8
-0.69999998807907104,1.7000000476837158,-0.69999998807907104,0,0,0,0,0,0,8
-0.5,1.7000000476837158,-0.69999998807907104,0,0,0,0,0,0,8
-0.30000001192092896,1.7000000476837158,-0.69999998807907104,0,0,0,0,0,0,8
-0.10000000149011612,1.7000000476837158,-0.69999998807907104,0,0,0,0,0,0,8
0.10000000149011612,1.7000000476837158,-0.69999998807907104,0,0,0,0,0,0,8
0.30000001192092896,1.7000000476837158,-0.69999998807907104,0,0,0,0,0,0,8
0.5,1.7000000476837158,-0.69999998807907104,0,0,0,0,0,0,8
0.69999998807907104,1.7000000476837158,-0.69999998807907104,0,0,0,0,0,0,8
0.90000003576278687,1.7000000476837158,-0.69999998807907104,0,0,0,0,0,0,8
-0.90000003576278687,1.7000000476837158,-0.5,0,0,0,0,0,0,8
-0.69999998807907104,1.7000000476837158,-0.5,0,0,0,0,0,0,8
-0.5,1.7000000476837158,-0.5,0,0,0,0,0,0,8
-0.30000001192092896,1.7000000476837158,-0.5,0,0,0,0,0,0,8
-0.10000000149011612,1.7000000476837158,-0.5,0,0,0,0,0,0,8
0.10000000149011612,1.7000000476837158,-0.5,0,0,0,0,0,0,8
0.30000001192092896,1.7000000476837158,-0.5,0,0,0,0,0,0,8
0.5,1.7000000476837158,-0.5,0,0,0,0,0,0,8
0.69999998807907104,1.7000000476837158,-0.5,0,0,0,0,0,0,8
0.90000003576278687,1.7000000476837158,-0.5,0,0,0,0,0,0,8
-0.90000003576278687,1.7000000476837158,-0.30000001192092896,0,0,0,0,0,0,8
-0.69999998807907104,1.7000000476837158,-0.30000001192092896,0,0,0,0,0,0,8
-0.5,1.7000000476837158,-0.30000001192092896,0,0,0,0,0,0,8
-0.30000001192092896,1.7000000476837158,-0.30000001192092896,0,0,0,0,0,0,8
-0.10000000149011612,1.7000000476837158,-0.30000001192092896,0,0,0,0,0,0,8
0.10000000149011612,1.7000000476837158,-0.30000001192092896,0,0,0,0,0,0,8
0.30000001192092896,1.7000000476837158,-0.30000001192092896,0,0,0,0,0,0,8
0.5,1.7000000476837158,-0.30000001192092896,0,0,0,0,0,0,8
0.69999998807907104,1.7000000476837158,-0.30000001192092896,0,0,0,0,0,0,8
0.90000003576278687,1.7000000476837158,-0.30000001192092896,0,0,0,0,0,0,8
-0.90000003576278687,1.7000000476837158,-0.099999964237213135,0,0,0,0,0,0,8
-0.69999998807907104,1.7000000476837158,-0.099999964237213135,0,0,0,0,0,0,8
-0.5,1.7000000476837158,-0.099999964237213135,0,0,0,0,0,0,8
-0.30000001192092896,1.7000000476837158,-0.099999964237213135,0,0,0,0,0,0,8
-0.10000000149011612,1.7000000476837158,-0.099999964237213135,0,0,0,0,0,0,8
0.10000000149011612,1.7000000476837158,-0.099999964237213135,0,0,0,0,0,0,8
0.30000001192092896,1.7000000476837158,-0.099999964237213135,0,0,0,0,0,0,8
0.5,1.7000000476837158,-0.099999964237213135,0,0,0,0,0,0,8
0.69999998807907104,1.7000000476837158,-0.099999964237213135,0,0,0,0,0,0,8
0.90000003576278687,1.7000000476837158,-0.099999964237213135,0,0,0,0,0,0,8
-0.90000003576278687,1.7000000476837158,0.10000002384185791,0,0,0,0,0,0,8
-0.69999998807907104,1.7000000476837158,0.10000002384185791,0,0,0,0,0,0,8
-0.5,1.7000000476837158,0.10000002384185791,0,0,0,0,0,0,8
-0.30000001192092896,1.7000000476837158,0.10000002384185791,0,0,0,0,0,0,8
-0.10000000149011612,1.7000000476837158,0.10000002384185791,0,0,0,0,0,0,8
0.10000000149011612,1.7000000476837158,0.10000002384185791,0,0,0,0,0,0,8
0.30000001192092896,1.7000000476837158,0.10000002384185791,0,0,0,0,0,0,8
0.5,1.7000000476837158,0.10000002384185791,0,0,0,0,0,0,8
0.69999998807907104,1.7000000476837158,0.10000002384185791,0,0,0,0,0,0,8
0.90000003576278687,1.7000000476837158,0.10000002384185791,0,0,0,0,0,0,8
-0.90000003576278687,1.7000000476837158,0.30000007152557373,0,0,0,0,0,0,8
-0.69999998807907104,1.7000000476837158,0.30000007152557373,0,0,0,0,0,0,8
-0.5,1.7000000476837158,0.30000007152557373,0,0,0,0,0,0,8
-0.30000001192092896,1.7000000476837158,0.30000007152557373,0,0,0,0,0,0,8
-0.10000000149011612,1.7000000476837158,0.30000007152557373,0,0,0,0,0,0,8
0.10000000149011612,1.7000000476837158,0.30000007152557373,0,0,0,0,0,0,8
0.30000001192092896,1.7000000476837158,0.30000007152557373,0,0,0,0,0,0,8
0.5,1.7000000476837158,0.30000007152557373,0,0,0,0,0,0,8
0.69999998807907104,1.7000000476837158,0.30000007152557373,0,0,0,0,0,0,8
0.90000003576278687,1.7000000476837158,0.30000007152557373,0,0,0,0,0,0,8
-0.90000003576278687,1.7000000476837158,0.5,0,0,0,0,0,0,8
-0.69999998807907104,1.7000000476837158,0.5,0,0,0,0,0,0,8
-0.5,1.7000000476837158,0.5,0,0,0,0,0,0,8
-0.30000001192092896,1.7000000476837158,0.5,0,0,0,0,0,0,8
-0.10000000149011612,1.7000000476837158,0.5,0,0,0,0,0,0,8
0.10000000149011612,1.7000000476837158,0.5,0,0,0,0,0,0,8
0.30000001192092896,1.7000000476837158,0.5,0,0,0,0,0,0,8
0.5,1.7000000476837158,0.5,0,0,0,0,0,0,8
0.69999998807907104,1.7000000476837158,0.5,0,0,0,0,0,0,8
0.90000003576278687,1.7000000476837158,0.5,0,0,0,0,0,0,8
-0.90000003576278687,1.7000000476837158,0.70000004768371582,0,0,0,0,0,0,8
-0.69999998807907104,1.7000000476837158,0.70000004768371582,0,0,0,0,0,0,8
-0.5,1.7000000476837158,0.70000004768371582,0,0,0,0,0,0,8
-0.30000001192092896,1.7000000476837158,0.70000004768371582,0,0,0,0,0,0,8
-0.10000000149011612,1.7000000476837158,0.70000004768371582,0,0,0,0,0,0,8
0.10000000149011612,1.7000000476837158,0.70000004768371582,0,0,0,0,0,0,8
0.30000001192092896,1.7000000476837158,0.70000004768371582,0,0,0,0,0,0,8
0.5,1.7000000476837158,0.70000004768371582,0,0,0,0,0,0,8
0.69999998807907104,1.7000000476837158,0.70000004768371582,0,0,0,0,0,0,8
0.90000003576278687,1.7000000476837158,0.70000004768371582,0,0,0,0,0,0,8
-0.90000003576278687,1.7000000476837158,0.89999997615814209,0,0,0,0,0,0,8
-0.69999998807907104,1.7000000476837158,0.89999997615814209,0,0,0,0,0,0,8
-0.5,1.7000000476837158,0.89999997615814209,0,0,0,0,0,0,8
-0.30000001192092896,1.7000000476837158,0.89999997615814209,0,0,0,0,0,0,8
-0.10000000149011612,1.7000000476837158,0.89999997615814209,0,0,0,0,0,0,8
0.10000000149011612,1.7000000476837158,0.89999997615814209,0,0,0,0,0,0,8
0.30000001192092896,1.7000000476837158,0.89999997615814209,0,0,0,0,0,0,8
0.5,1.7000000476837158,0.89999997615814209,0,0,0,0,0,0,8
0.69999998807907104,1.7000000476837158,0.89999997615814209,0,0,0,0,0,0,8
0.90000003576278687,1.7000000476837158,0.89999997615814209,0,0,0,0,0,0,8
-0.90000003576278687,1.8999999761581421,-0.89999997615814209,0,0,0,0,0,0,8
-0.69999998807907104,1.8999999761581421,-0.89999997615814209,0,0,0,0,0,0,8
-0.5,1.8999999761581421,-0.89999997615814209,0,0,0,0,0,0,8
-0.30000001192092896,1.8999999761581421,-0.89999997615814209,0,0,0,0,0,0,8
-0.10000000149011612,1.8999999761581421,-0.89999997615814209,0,0,0,0,0,0,8
0.10000000149011612,1.8999999761581421,-0.89999997615814209,0,0,0,0,0,0,8
0.30000001192092896,1.8999999761581421,-0.89999997615814209,0,0,0,0,0,0,8
0.5,1.8999999761581421,-0.89999997615814209,0,0,0,0,0,0,8
0.69999998807907104,1.8999999761581421,-0.89999997615814209,0,0,0,0,0,0,8
0.90000003576278687,1.8999999761581421,-0.89999997615814209,0,0,0,0,0,0,8
-0.90000003576278687,1.8999999761581421,-0.69999998807907104,0,0,0,0,0,0,8
-0.69999998807907104,1.8999999761581421,-0.69999998807907104,0,0,0,0,0,0,8
-0.5,1.8999999761581421,-0.69999998807907104,0,0,0,0,0,0,8
-0.30000001192092896,1.8999999761581421,-0.69999998807907104,0,0,0,0,0,0,8
-0.10000000149011612,1.8999999761581421,-0.69999998807907104,0,0,0,0,0,0,8
0.10000000149011612,1.8999999761581421,-0.69999998807907104,0,0,0,0,0,0,8
0.30000001192092896,1.8999999761581421,-0.69999998807907104,0,0,0,0,0,0,8
0.5,1.8999999761581421,-0.69999998807907104,0,0,0,0,0,0,8
0.69999998807907104,1.8999999761581421,-0.69999998807907104,0,0,0,0,0,0,8
0.90000003576278687,1.8999999761581421,-0.69999998807907104,0,0,0,0,0,0,8
-0.90000003576278687,1.8999999761581421,-0.5,0,0,0,0,0,0,8
-0.69999998807907104,1.8999999761581421,-0.5,0,0,0,0,0,0,8
-0.5,1.8999999761581421,-0.5,0,0,0,0,0,0,8
-0.30000001192092896,1.8999999761581421,-0.5,0,0,0,0,0,0,8
-0.10000000149011612,1.8999999761581421,-0.5,0,0,0,0,0,0,8
0.10000000149011612,1.8999999761581421,-0.5,0,0,0,0,0,0,8
0.30000001192092896,1.8999999761581421,-0.5,0,0,0,0,0,0,8
0.5,1.8999999761581421,-0.5,0,0,0,0,0,0,8
0.69999998807907104,1.8999999761581421,-0.5,0,0,0,0,0,0,8
0.90000003576278687,1.8999999761581421,-0.5,0,0,0,0,0,0,8
-0.90000003576278687,1.8999999761581421,-0.30000001192092896,0,0,0,0,0,0,8
-0.69999998807907104,1.8999999761581421,-0.30000001192092896,0,0,0,0,0,0,8
-0.5,1.8999999761581421,-0.30000001192092896,0,0,0,0,0,0,8
-0.30000001192092896,1.8999999761581421,-0.30000001192092896,0,0,0,0,0,0,8
-0.10000000149011612,1.8999999761581421,-0.30000001192092896,0,0,0,0,0,0,8
0.10000000149011612,1.8999999761581421,-0.30000001192092896,0,0,0,0,0,0,8
0.30000001192092896,1.8999999761581421,-0.30000001192092896,0,0,0,0,0,0,8
0.5,1.8999999761581421,-0.30000001192092896,0,0,0,0,0,0,8
0.69999998807907104,1.8999999761581421,-0.30000001192092896,0,0,0,0,0,0,8
0.90000003576278687,1.8999999761581421,-0.30000001192092896,0,0,0,0,0,0,8
-0.90000003576278687,1.8999999761581421,-0.099999964237213135,0,0,0,0,0,0,8
-0.69999998807907104,1.8999999761581421,-0.099999964237213135,0,0,0,0,0,0,8
-0.5,1.8999999761581421,-0.099999964237213135,0,0,0,0,0,0,8
-0.30000001192092896,1.8999999761581421,-0.099999964237213135,0,0,0,0,0,0,8
-0.10000000149011612,1.8999999761581421,-0.099999964237213135,0,0,0,0,0,0,8
0.10000000149011612,1.8999999761581421,-0.099999964237213135,0,0,0,0,0,0,8
0.30000001192092896,1.8999999761581421,-0.099999964237213135,0,0,0,0,0,0,8
0.5,1.8999999761581421,-0.099999964237213135,0,0,0,0,0,0,8
0.69999998807907104,1.8999999761581421,-0.099999964237213135,0,0,0,0,0,0,8
0.90000003576278687,1.8999999761581421,-0.099999964237213135,0,0,0,0,0,0,8
-0.90000003576278687,1.8999999761581421,0.10000002384185791,0,0,0,0,0,0,8
-0.69999998807907104,1.8999999761581421,0.10000002384185791,0,0,0,0,0,0,8
-0.5,1.8999999761581421,0.10000002384185791,0,0,0,0,0,0,8
-0.30000001192092896,1.8999999761581421,0.10000002384185791,0,0,0,0,0,0,8
-0.10000000149011612,1.8999999761581421,0.10000002384185791,0,0,0,0,0,0,8
0.10000000149011612,1.8999999761581421,0.10000002384185791,0,0,0,0,0,0,8
0.30000001192092896,1.8999999761581421,0.10000002384185791,0,0,0,0,0,0,8
0.5,1.8999999761581421,0.10000002384185791,0,0,0,0,0,0,8
0.69999998807907104,1.8999999761581421,0.10000002384185791,0,0,0,0,0,0,8
0.90000003576278687,1.8999999761581421,0.10000002384185791,0,0,0,0,0,0,8
-0.90000003576278687,1.8999999761581421,0.30000007152557373,0,0,0,0,0,0,8
-0.69999998807907104,1.8999999761581421,0.30000007152557373,0,0,0,0,0,0,8
-0.5,1.8999999761581421,0.30000007152557373,0,0,0,0,0,0,8
-0.30000001192092896,1.8999999761581421,0.30000007152557373,0,0,0,0,0,0,8
-0.10000000149011612,1.8999999761581421,0.30000007152557373,0,0,0,0,0,0,8
0.10000000149011612,1.8999999761581421,0.30000007152557373,0,0,0,0,0,0,8
0.30000001192092896,1.8999999761581421,0.30000007152557373,0,0,0,0,0,0,8
0.5,1.8999999761581421,0.30000007152557373,0,0,0,0,0,0,8
0.69999998807907104,1.8999999761581421,0.30000007152557373,0,0,0,0,0,0,8
0.90000003576278687,1.8999999761581421,0.30000007152557373,0,0,0,0,0,0,8
-0.90000003576278687,1.8999999761581421,0.5,0,0,0,0,0,0,8
-0.69999998807907104,1.8999999761581421,0.5,0,0,0,0,0,0,8
-0.5,1.8999999761581421,0.5,0,0,0,0,0,0,8
-0.30000001192092896,1.8999999761581421,0.5,0,0,0,0,0,0,8
-0.10000000149011612,1.8999999761581421,0.5,0,0,0,0,0,0,8
0.10000000149011612,1.8999999761581421,0.5,0,0,0,0,0,0,8
0.30000001192092896,1.8999999761581421,0.5,0,0,0,0,0,0,8
0.5,1.8999999761581421,0.5,0,0,0,0,0,0,8
0.69999998807907104,1.8999999761581421,0.5,0,0,0,0,0,0,8
0.90000003576278687,1.8999999761581421,0.5,0,0,0,0,0,0,8
-0.90000003576278687,1.8999999761581421,0.70000004768371582,0,0,0,0,0,0,8
-0.69999998807907104,1.8999999761581421,0.70000004768371582,0,0,0,0,0,0,8
-0.5,1.8999999761581421,0.70000004768371582,0,0,0,0,0,0,8
-0.30000001192092896,1.8999999761581421,0.70000004768371582,0,0,0,0,0,0,8
-0.10000000149011612,1.8999999761581421,0.70000004768371582,0,0,0,0,0,0,8
0.10000000149011612,1.8999999761581421,0.70000004768371582,0,0,0,0,0,0,8
0.30000001192092896,1.8999999761581421,0.70000004768371582,0,0,0,0,0,0,8
0.5,1.8999999761581421,0.70000004768371582,0,0,0,0,0,0,8
0.69999998807907104,1.8999999761581421,0.70000004768371582,0,0,0,0,0,0,8
0.90000003576278687,1.8999999761581421,0.70000004768371582,0,0,0,0,0,0,8
-0.90000003576278687,1.8999999761581421,0.89999997615814209,0,0,0,0,0,0,8
-0.69999998807907104,1.8999999761581421,0.89999997615814209,0,0,0,0,0,0,8
-0.5,1.8999999761581421,0.89999997615814209,0,0,0,0,0,0,8
-0.30000001192092896,1.8999999761581421,0.89999997615814209,0,0,0,0,0,0,8
-0.10000000149011612,1.8999999761581421,0.89999997615814209,0,0,0,0,0,0,8
0.10000000149011612,1.8999999761581421,0.89999997615814209,0,0,0,0,0,0,8
0.30000001192092896,1.8999999761581421,0.89999997615814209,0,0,0,0,0,0,8
0.5,1.8999999761581421,0.89999997615814209,0,0,0,0,0,0,8
0.69999998807907104,1.8999999761581421,0.89999997615814209,0,0,0,0,0,0,8
0.90000003576278687,1.8999999761581421,0.89999997615814209,0,0,0,0,0,0,8
-0.90000003576278687,2.1000001430511475,-0.89999997615814209,0,0,0,0,0,0,8
-0.69999998807907104,2.1000001430511475,-0.89999997615814209,0,0,0,0,0,0,8
-0.5,2.1000001430511475,-0.89999997615814209,0,0,0,0,0,0,8
-0.30000001192092896,2.1000001430511475,-0.89999997615814209,0,0,0,0,0,0,8
-0.10000000149011612,2.1000001430511475,-0.89999997615814209,0,0,0,0,0,0,8
0.10000000149011612,2.1000001430511475,-0.89999997615814209,0,0,0,0,0,0,8
0.30000001192092896,2.1000001430511475,-0.89999997615814209,0,0,0,0,0,0,8
0.5,2.1000001430511475,-0.89999997615814209,0,0,0,0,0,0,8
0.69999998807907104,2.1000001430511475,-0.89999997615814209,0,0,0,0,0,0,8
0.90000003576278687,2.1000001430511475,-0.89999997615814209,0,0,0,0,0,0,8
-0.90000003576278687,2.1000001430511475,-0.69999998807907104,0,0,0,0,0,0,8
-0.69999998807907104,2.1000001430511475,-0.69999998807907104,0,0,0,0,0,0,8
-0.5,2.1000001430511475,-0.69999998807907104,0,0,0,0,0,0,8
-0.30000001192092896,2.1000001430511475,-0.69999998807907104,0,0,0,0,0,0,8
-0.10000000149011612,2.1000001430511475,-0.69999998807907104,0,0,0,0,0,0,8
0.10000000149011612,2.1000001430511475,-0.69999998807907104,0,0,0,0,0,0,8
0.30000001192092896,2.1000001430511475,-0.69999998807907104,0,0,0,0,0,0,8
0.5,2.1000001430511475,-0.69999998807907104,0,0,0,0,0,0,8
0.69999998807907104,2.1000001430511475,-0.69999998807907104,0,0,0,0,0,0,8
0.90000003576278687,2.1000001430511475,-0.69999998807907104,0,0,0,0,0,0,8
-0.90000003576278687,2.1000001430511475,-0.5,0,0,0,0,0,0,8
-0.69999998807907104,2.1000001430511475,-0.5,0,0,0,0,0,0,8
-0.5,2.1000001430511475,-0.5,0,0,0,0,0,0,8
-0.30000001192092896,2.1000001430511475,-0.5,0,0,0,0,0,0,8
-0.10000000149011612,2.1000001430511475,-0.5,0,0,0,0,0,0,8
0.10000000149011612,2.1000001430511475,-0.5,0,0,0,0,0,0,8
0.30000001192092896,2.1000001430511475,-0.5,0,0,0,0,0,0,8
0.5,2.1000001430511475,-0.5,0,0,0,0,0,0,8
0.69999998807907104,2.1000001430511475,-0.5,0,0,0,0,0,0,8
0.90000003576278687,2.1000001430511475,-0.5,0,0,0,0,0,0,8
-0.90000003576278687,2.1000001430511475,-0.30000001192092896,0,0,0,0,0,0,8
-0.69999998807907104,2.1000001430511475,-0.30000001192092896,0,0,0,0,0,0,8
-0.5,2.1000001430511475,-0.30000001192092896,0,0,0,0,0,0,8
-0.30000001192092896,2.1000001430511475,-0.30000001192092896,0,0,0,0,0,0,8
-0.10000000149011612,2.1000001430511475,-0.30000001192092896,0,0,0,0,0,0,8
0.10000000149011612,2.1000001430511475,-0.30000001192092896,0,0,0,0,0,0,8
0.30000001192092896,2.1000001430511475,-0.30000001192092896,0,0,0,0,0,0,8
0.5,2.1000001430511475,-0.30000001192092896,0,0,0,0,0,0,8
0.69999998807907104,2.1000001430511475,-0.30000001192092896,0,0,0,0,0,0,8
0.90000003576278687,2.1000001430511475,-0.30000001192092896,0,0,0,0,0,0,8
-0.90000003576278687,2.1000001430511475,-0.099999964237213135,0,0,0,0,0,0,8
-0.69999998807907104,2.1000001430511475,-0.099999964237213135,0,0,0,0,0,0,8
-0.5,2.1000001430511475,-0.099999964237213135,0,0,0,0,0,0,8
-0.30000001192092896,2.1000001430511475,-0.099999964237213135,0,0,0,0,0,0,8
-0.10000000149011612,2.1000001430511475,-0.099999964237213135,0,0,0,0,0,0,8
0.10000000149011612,2.1000001430511475,-0.099999964237213135,0,0,0,0,0,0,8
0.30000001192092896,2.1000001430511475,-0.099999964237213135,0,0,0,0,0,0,8
0.5,2.1000001430511475,-0.099999964237213135,0,0,0,0,0,0,8
0.69999998807907104,2.1000001430511475,-0.099999964237213135,0,0,0,0,0,0,8
0.90000003576278687,2.1000001430511475,-0.099999964237213135,0,0,0,0,0,0,8
-0.90000003576278687,2.1000001430511475,0.10000002384185791,0,0,0,0,0,0,8
-0.69999998807907104,2.1000001430511475,0.10000002384185791,0,0,0,0,0,0,8
-0.5,2.1000001430511475,0.10000002384185791,0,0,0,0,0,0,8
-0.30000001192092896,2.1000001430511475,0.10000002384185791,0,0,0,0,0,0,8
-0.10000000149011612,2.1000001430511475,0.10000002384185791,0,0,0,0,0,0,8
0.10000000149011612,2.1000001430511475,0.10000002384185791,0,0,0,0,0,0,8
0.30000001192092896,2.1000001430511475,0.10000002384185791,0,0,0,0,0,0,8
0.5,2.1000001430511475,0.10000002384185791,0,0,0,0,0,0,8
0.69999998807907104,2.1000001430511475,0.10000002384185791,0,0,0,0,0,0,8
0.90000003576278687,2.1000001430511475,0.10000002384185791,0,0,0,0,0,0,8
-0.90000003576278687,2.1000001430511475,0.30000007152557373,0,0,0,0,0,0,8
-0.69999998807907104,2.1000001430511475,0.30000007152557373,0,0,0,0,0,0,8
-0.5,2.1000001430511475,0.30000007152557373,0,0,0,0,0,0,8
-0.30000001192092896,2.1000001430511475,0.30000007152557373,0,0,0,0,0,0,8
-0.10000000149011612,2.1000001430511475,0.30000007152557373,0,0,0,0,0,0,8
0.10000000149011612,2.1000001430511475,0.30000007152557373,0,0,0,0,0,0,8
0.30000001192092896,2.1000001430511475,0.30000007152557373,0,0,0,0,0,0,8
0.5,2.1000001430511475,0.30000007152557373,0,0,0,0,0,0,8
0.69999998807907104,2.1000001430511475,0.30000007152557373,0,0,0,0,0,0,8
0.90000003576278687,2.1000001430511475,0.30000007152557373,0,0,0,0,0,0,8
-0.90000003576278687,2.1000001430511475,0.5,0,0,0,0,0,0,8
-0.69999998807907104,2.1000001430511475,0.5,0,0,0,0,0,0,8
-0.5,2.1000001430511475,0.5,0,0,0,0,0,0,8
-0.30000001192092896,2.1000001430511475,0.5,0,0,0,0,0,0,8
-0.10000000149011612,2.1000001430511475,0.5,0,0,0,0,0,0,8
0.10000000149011612,2.1000001430511475,0.5,0,0,0,0,0,0,8
0.30000001192092896,2.1000001430511475,0.5,0,0,0,0,0,0,8
0.5,2.1000001430511475,0.5,0,0,0,0,0,0,8
0.69999998807907104,2.1000001430511475,0.5,0,0,0,0,0,0,8
0.90000003576278687,2.1000001430511475,0.5,0,0,0,0,0,0,8
-0.90000003576278687,2.1000001430511475,0.70000004768371582,0,0,0,0,0,0,8
-0.69999998807907104,2.1000001430511475,0.70000004768371582,0,0,0,0,0,0,8
-0.5,2.1000001430511475,0.70000004768371582,0,0,0,0,0,0,8
-0.30000001192092896,2.1000001430511475,0.70000004768371582,0,0,0,0,0,0,8
-0.10000000149011612,2.1000001430511475,0.70000004768371582,0,0,0,0,0,0,8
0.10000000149011612,2.1000001430511475,0.70000004768371582,0,0,0,0,0,0,8
0.30000001192092896,2.1000001430511475,0.70000004768371582,0,0,0,0,0,0,8
0.5,2.1000001430511475,0.70000004768371582,0,0,0,0,0,0,8
0.69999998807907104,2.1000001430511475,0.70000004768371582,0,0,0,0,0,0,8
0.90000003576278687,2.1000001430511475,0.70000004768371582,0,0,0,0,0,0,8
-0.90000003576278687,2.1000001430511475,0.89999997615814209,0,0,0,0,0,0,8
-0.69999998807907104,2.1000001430511475,0.89999997615814209,0,0,0,0,0,0,8
-0.5,2.1000001430511475,0.89999997615814209,0,0,0,0,0,0,8
-0.30000001192092896,2.1000001430511475,0.89999997615814209,0,0,0,0,0,0,8
-0.10000000149011612,2.1000001430511475,0.89999997615814209,0,0,0,0,0,0,8
0.10000000149011612,2.1000001430511475,0.89999997615814209,0,0,0,0,0,0,8
0.30000001192092896,2.1000001430511475,0.89999997615814209,0,0,0,0,0,0,8
0.5,2.1000001430511475,0.89999997615814209,0,0,0,0,0,0,8
0.69999998807907104,2.1000001430511475,0.89999997615814209,0,0,0,0,0,0,8
0.90000003576278687,2.1000001430511475,0.89999997615814209,0,0,0,0,0,0,8
-0.90000003576278687,2.2999999523162842,-0.89999997615814209,0,0,0,0,0,0,8
-0.69999998807907104,2.2999999523162842,-0.89999997615814209,0,0,0,0,0,0,8
-0.5,2.2999999523162842,-0.89999997615814209,0,0,0,0,0,0,8
-0.30000001192092896,2.2999999523162842,-0.89999997615814209,0,0,0,0,0,0,8
-0.10000000149011612,2.2999999523162842,-0.89999997615814209,0,0,0,0,0,0,8
0.10000000149011612,2.2999999523162842,-0.89999997615814209,0,0,0,0,0,0,8
0.30000001192092896,2.2999999523162842,-0.89999997615814209,0,0,0,0,0,0,8
0.5,2.2999999523162842,-0.89999997615814209,0,0,0,0,0,0,8
0.69999998807907104,2.2999999523162842,-0.89999997615814209,0,0,0,0,0,0,8
0.90000003576278687,2.2999999523162842,-0.89999997615814209,0,0,0,0,0,0,8
-0.90000003576278687,2.2999999523162842,-0.69999998807907104,0,0,0,0,0,0,8
-0.69999998807907104,2.2999999523162842,-0.69999998807907104,0,0,0,0,0,0,8
-0.5,2.2999999523162842,-0.69999998807907104,0,0,0,0,0,0,8
-0.30000001192092896,2.2999999523162842,-0.69999998807907104,0,0,0,0,0,0,8
-0.10000000149011612,2.2999999523162842,-0.69999998807907104,0,0,0,0,0,0,8
0.10000000149011612,2.2999999523162842,-0.69999998807907104,0,0,0,0,0,0,8
0.30000001192092896,2.2999999523162842,-0.69999998807907104,0,0,0,0,0,0,8
0.5,2.2999999523162842,-0.69999998807907104,0,0,0,0,0,0,8
0.69999998807907104,2.2999999523162842,-0.69999998807907104,0,0,0,0,0,0,8
0.90000003576278687,2.2999999523162842,-0.69999998807907104,0,0,0,0,0,0,8
-0.90000003576278687,2.2999999523162842,-0.5,0,0,0,0,0,0,8
-0.69999998807907104,2.2999999523162842,-0.5,0,0,0,0,0,0,8
-0.5,2.2999999523162842,-0.5,0,0,0,0,0,0,8
-0.30000001192092896,2.2999999523162842,-0.5,0,0,0,0,0,0,8
-0.10000000149011612,2.2999999523162842,-0.5,0,0,0,0,0,0,8
0.10000000149011612,2.2999999523162842,-0.5,0,0,0,0,0,0,8
0.30000001192092896,2.2999999523162842,-0.5,0,0,0,0,0,0,8
0.5,2.2999999523162842,-0.5,0,0,0,0,0,0,8
0.69999998807907104,2.2999999523162842,-0.5,0,0,0,0,0,0,8
0.90000003576278687,2.2999999523162842,-0.5,0,0,0,0,0,0,8
-0.90000003576278687,2.2999999523162842,-0.30000001192092896,0,0,0,0,0,0,8
-0.69999998807907104,2.2999999523162842,-0.30000001192092896,0,0,0,0,0,0,8
-0.5,2.2999999523162842,-0.30000001192092896,0,0,0,0,0,0,8
-0.30000001192092896,2.2999999523162842,-0.30000001192092896,0,0,0,0,0,0,8
-0.10000000149011612,2.2999999523162842,-0.30000001192092896,0,0,0,0,0,0,8
0.10000000149011612,2.2999999523162842,-0.30000001192092896,0,0,0,0,0,0,8
0.30000001192092896,2.2999999523162842,-0.30000001192092896,0,0,0,0,0,0,8
0.5,2.2999999523162842,-0.30000001192092896,0,0,0,0,0,0,8
0.69999998807907104,2.2999999523162842,-0.30000001192092896,0,0,0,0,0,0,8
0.90000003576278687,2.2999999523162842,-0.30000001192092896,0,0,0,0,0,0,8
-0.90000003576278687,2.2999999523162842,-0.099999964237213135,0,0,0,0,0,0,8
-0.69999998807907104,2.2999999523162842,-0.099999964237213135,0,0,0,0,0,0,8
-0.5,2.2999999523162842,-0.099999964237213135,0,0,0,0,0,0,8
-0.30000001192092896,2.2999999523162842,-0.099999964237213135,0,0,0,0,0,0,8
-0.10000000149011612,2.2999999523162842,-0.099999964237213135,0,0,0,0,0,0,8
0.10000000149011612,2.2999999523162842,-0.099999964237213135,0,0,0,0,0,0,8
0.30000001192092896,2.2999999523162842,-0.099999964237213135,0,0,0,0,0,0,8
0.5,2.2999999523162842,-0.099999964237213135,0,0,0,0,0,0,8
0.69999998807907104,2.2999999523162842,-0.099999964237213135,0,0,0,0,0,0,8
0.90000003576278687,2.2999999523162842,-0.099999964237213135,0,0,0,0,0,0,8
-0.90000003576278687,2.2999999523162842,0.10000002384185791,0,0,0,0,0,0,8
-0.69999998807907104,2.2999999523162842,0.10000002384185791,0,0,0,0,0,0,8
-0.5,2.2999999523162842,0.10000002384185791,0,0,0,0,0,0,8
-0.30000001192092896,2.2999999523162842,0.10000002384185791,0,0,0,0,0,0,8
-0.10000000149011612,2.2999999523162842,0.10000002384185791,0,0,0,0,0,0,8
0.10000000149011612,2.2999999523162842,0.10000002384185791,0,0,0,0,0,0,8
0.30000001192092896,2.2999999523162842,0.10000002384185791,0,0,0,0,0,0,8
0.5,2.2999999523162842,0.10000002384185791,0,0,0,0,0,0,8
0.69999998807907104,2.2999999523162842,0.10000002384185791,0,0,0,0,0,0,8
0.90000003576278687,2.2999999523162842,0.10000002384185791,0,0,0,0,0,0,8
-0.90000003576278687,2.2999999523162842,0.30000007152557373,0,0,0,0,0,0,8
-0.69999998807907104,2.2999999523162842,0.30000007152557373,0,0,0,0,0,0,8
-0.5,2.2999999523162842,0.30000007152557373,0,0,0,0,0,0,8
-0.30000001192092896,2.2999999523162842,0.30000007152557373,0,0,0,0,0,0,8
-0.10000000149011612,2.2999999523162842,0.30000007152557373,0,0,0,0,0,0,8
0.10000000149011612,2.2999999523162842,0.30000007152557373,0,0,0,0,0,0,8
0.30000001192092896,2.2999999523162842,0.30000007152557373,0,0,0,0,0,0,8
0.5,2.2999999523162842,0.30000007152557373,0,0,0,0,0,0,8
0.69999998807907104,2.2999999523162842,0.30000007152557373,0,0,0,0,0,0,8
0.90000003576278687,2.2999999523162842,0.30000007152557373,0,0,0,0,0,0,8
-0.90000003576278687,2.2999999523162842,0.5,0,0,0,0,0,0,8
-0.69999998807907104,2.2999999523162842,0.5,0,0,0,0,0,0,8
-0.5,2.2999999523162842,0.5,0,0,0,0,0,0,8
-0.30000001192092896,2.2999999523162842,0.5,0,0,0,0,0,0,8
-0.10000000149011612,2.2999999523162842,0.5,0,0,0,0,0,0,8
0.10000000149011612,2.2999999523162842,0.5,0,0,0,0,0,0,8
0.30000001192092896,2.2999999523162842,0.5,0,0,0,0,0,0,8
0.5,2.2999999523162842,0.5,0,0,0,0,0,0,8
0.69999998807907104,2.2999999523162842,0.5,0,0,0,0,0,0,8
0.90000003576278687,2.2999999523162842,0.5,0,0,0,0,0,0,8
-0.90000003576278687,2.2999999523162842,0.70000004768371582,0,0,0,0,0,0,8
-0.69999998807907104,2.2999999523162842,0.70000004768371582,0,0,0,0,0,0,8
-0.5,2.2999999523162842,0.70000004768371582,0,0,0,0,0,0,8
-0.30000001192092896,2.2999999523162842,0.70000004768371582,0,0,0,0,0,0,8
-0.10000000149011612,2.2999999523162842,0.70000004768371582,0,0,0,0,0,0,8
0.10000000149011612,2.2999999523162842,0.70000004768371582,0,0,0,0,0,0,8
0.30000001192092896,2.2999999523162842,0.70000004768371582,0,0,0,0,0,0,8
0.5,2.2999999523162842,0.70000004768371582,0,0,0,0,0,0,8
0.69999998807907104,2.2999999523162842,0.70000004768371582,0,0,0,0,0,0,8
0.90000003576278687,2.2999999523162842,0.70000004768371582,0,0,0,0,0,0,8
-0.90000003576278687,2.2999999523162842,0.89999997615814209,0,0,0,0,0,0,8
-0.69999998807907104,2.2999999523162842,0.89999997615814209,0,0,0,0,0,0,8
-0.5,2.2999999523162842,0.89999997615814209,0,0,0,0,0,0,8
-0.30000001192092896,2.2999999523162842,0.89999997615814209,0,0,0,0,0,0,8
-0.10000000149011612,2.2999999523162842,0.89999997615814209,0,0,0,0,0,0,8
0.10000000149011612,2.2999999523162842,0.89999997615814209,0,0,0,0,0,0,8
0.30000001192092896,2.2999999523162842,0.89999997615814209,0,0,0,0,0,0,8
0.5,2.2999999523162842,0.89999997615814209,0,0,0,0,0,0,8
0.69999998807907104,2.2999999523162842,0.89999997615814209,0,0,0,0,0,0,8
0.90000003576278687,2.2999999523162842,0.89999997615814209,0,0,0,0,0,0,8
